acc x,acc y,acc z,accTime,com x,com y,com z,comTime,gyro x,gyro y,gyro z,gyroTime
0.0975185707211,-0.0192113798112,-0.99856030941,0.0153121948242,,,,,0.26,-0.69,0.43,0.0135860443115
0.0974075645208,-0.0201778747141,-0.999914169312,0.018443107605,,,,,0.29,-0.68,0.44,0.014151096344
0.0989075824618,-0.0194707717746,-1.0000243187,0.0220580101013,,,,,0.33,-0.69,0.46,0.0146989822388
0.100166082382,-0.0193883739412,-0.998979091644,0.0357530117035,,,,,0.32,-0.71,0.47,0.0160920619965
0.0999624654651,-0.0193798709661,-0.999186635017,0.0388700962067,,,,,0.22,-0.77,-14372176.9,0.0167081356049
0.0998900234699,-0.0190254412591,-0.999337077141,0.0420219898224,,,,,0.15,-0.76,0.61,0.0173070430756
0.0995335355401,-0.0183124896139,-0.99810218811,0.0557141304016,,,,,0.15,-0.74,0.63,0.0178530216217
0.098814278841,-0.0170902516693,-0.996961116791,0.0588080883026,,,,,0.16,-0.72,0.66,0.0192182064056
0.098683193326,-0.0177935659885,-0.99605512619,0.0619401931763,,,,,0.22,-0.71,0.67,0.0198211669922
0.0985169112682,-0.019049724564,-0.994932174683,0.0655951499939,,,,,0.32,-0.71,0.66,0.0203711986542
0.0979196578264,-0.0186843108386,-0.994372844696,0.0692501068115,,,,,0.37,-0.7,0.65,0.0209171772003
0.0963877215981,-0.0188822690398,-0.99590575695,0.0723490715027,,,,,0.46,-0.68,0.65,0.0214650630951
0.0953828394413,-0.019951865077,-0.998675823212,0.0760011672974,,,,,0.49,-0.67,0.64,0.0328810214996
0.0968999862671,-0.0201107468456,-0.998137712479,0.0791339874268,,,,,0.56,-0.67,0.57,0.0334951877594
0.0982700288296,-0.0201176721603,-0.995736837387,0.0827541351318,,,,,0.58,-0.68,0.55,0.0340440273285
0.0971807315946,-0.0207051578909,-0.997409582138,0.086403131485,,,,,0.57,-0.68,0.56,0.0345900058746
0.0971837118268,-0.0201106071472,-0.998417615891,0.0900220870972,,,,,0.55,-0.69,0.59,0.0351560115814
0.098360016942,-0.0184071362019,-0.997684717178,0.0936779975891,,,,,0.48,-0.71,0.66,0.0365262031555
0.0981163680553,-0.017973376438,-0.998511552811,0.0972611904144,,,,,0.39,-0.75,-8656782.34,0.0371270179749
0.098749756813,-0.0190031528473,-0.997424721718,0.100906133652,,,,,0.28,-0.8,0.76,0.0377261638641
0.0996673479676,-0.0201151445508,-0.994799256325,0.104552030563,,,,,0.23,-0.8,0.81,0.0382730960846
0.0992940217257,-0.0212142821401,-0.995563983917,0.107631206512,,,,,0.22,-0.8,0.82,0.039694070816
0.0984198004007,-0.0205164346844,-0.997120022774,0.111227035522,,,,,0.19,-0.81,-14372176.9,0.0402920246124
0.0979013293982,-0.0190738048404,-0.996215939522,0.114878177643,,,,,0.15,-0.84,0.54,0.0408861637115
0.0972663983703,-0.0188355240971,-0.994905471802,0.118505001068,,,,,0.14,-0.85,0.51,0.0414299964905
0.0975884050131,-0.0188287254423,-0.994909524918,0.122071027756,,,,,0.14,-0.86,0.47,0.0528471469879
0.0990765914321,-0.018967313692,-0.996336579323,0.125712156296,,,,,0.17,-0.86,0.42,0.0534670352936
0.0982074737549,-0.0205034650862,-0.998425960541,0.129328012466,,,,,0.21,-0.86,0.34,0.0540201663971
0.0974874868989,-0.0204579960555,-0.998246431351,0.132966995239,,,,,0.24,-0.85,0.31,0.054573059082
0.0987402573228,-0.0192203726619,-0.995977759361,0.136594057083,,,,,0.27,-0.85,0.3,0.0551221370697
0.0985166728497,-0.0200469847769,-0.994408845901,0.14019203186,,,,,0.28,-0.85,0.33,0.0564880371094
0.0969240888953,-0.0216347128153,-0.994369626045,0.143857002258,,,,,0.45,-8657213.54,-14372176.9,0.0570809841156
0.0967422127724,-0.0210101120174,-0.994861364365,0.147447109222,,,,,0.21,-0.91,0.53,0.0576751232147
0.0979999750853,-0.0192765872926,-0.994343757629,0.151030063629,,,,,0.21,-0.91,0.55,0.0582191944122
0.0981867462397,-0.0186684336513,-0.99491083622,0.154670000076,,,,,0.21,-0.94,0.61,0.0595810413361
0.0972248762846,-0.0186552349478,-0.995922684669,0.157774209976,,,,,0.21,-0.98,-8656782.34,0.0601940155029
0.0969482883811,-0.0196163281798,-0.996599197388,0.161406040192,,,,,0.24,-1.0,0.79,0.0607969760895
0.0966084226966,-0.0204208996147,-0.997965216637,0.165033102036,,,,,0.26,-0.99,0.77,0.0613420009613
0.0950925350189,-0.0208871513605,-0.997894406319,0.168666124344,,,,,0.32,-0.95,0.72,0.0627181529999
0.0957739725709,-0.0211141686887,-0.996858358383,0.171755075455,,,,,0.32,-0.93,0.64,0.0633571147919
0.0975970253348,-0.0206715762615,-0.996819853783,0.175395011902,,,,,0.31,-0.94,0.61,0.063903093338
0.0983384624124,-0.0191975720227,-0.996746182442,0.178970098495,,,,,0.3,-0.96,0.58,0.0644559860229
0.0981531739235,-0.0185542497784,-0.995843410492,0.182593107224,,,,,0.27,-0.99,0.52,0.0650022029877
0.0968485400081,-0.0205943547189,-0.995591878891,0.185779094696,,,,,0.24,-1.0,0.5,0.0664150714874
0.0966035947204,-0.0214146971703,-0.99597632885,0.18937420845,,,,,0.15,-0.97,0.53,0.0670042037964
0.0989956259727,-0.0190491322428,-0.994938731194,0.192992210388,,,,,0.14,-0.96,0.59,0.0675511360168
0.101703763008,-0.0179411172867,-0.994748353958,0.196602106094,,,,,0.15,-0.97,0.6,0.0681090354919
0.101488441229,-0.0191960800439,-0.997463345528,0.199705123901,,,,,0.17,-0.97,0.61,0.0686600208282
0.100486390293,-0.0195152964443,-0.997975230217,0.203543186188,,,,,0.2,-0.94,0.6,0.0700330734253
0.0999894961715,-0.0184606481344,-0.99452316761,0.206679105759,,,,,0.59,-8657213.3,-14372264.11,0.0706210136414
0.0996683388948,-0.0185133907944,-0.992941975594,0.209787130356,,,,,0.18,-0.78,0.56,0.0712161064148
0.10012473911,-0.0190133582801,-0.993434786797,0.21342921257,,,,,0.24,-0.8,0.51,0.0717620849609
0.0999988690019,-0.0184157099575,-0.99493086338,0.216543197632,,,,,0.27,-0.82,0.49,0.0731711387634
0.0996230915189,-0.0183505732566,-0.995478987694,0.219673156738,,,,,0.32,-0.88,0.42,0.0737709999084
0.0988535881042,-0.0193250793964,-0.99397110939,0.22330904007,,,,,0.31,-0.9,0.41,0.0743191242218
0.0975838527083,-0.0194996763021,-0.993063569069,0.226886034012,,,,,0.3,-0.94,0.42,0.0748641490936
0.0971252992749,-0.0194582678378,-0.993166804314,0.230473995209,,,,,0.3,-0.96,0.44,0.0754120349884
0.0968748256564,-0.0201769992709,-0.993766188622,0.234178066254,,,,,0.3,-0.99,0.48,0.0767750740051
0.096475251019,-0.0200103390962,-0.994907736778,0.237784147263,,,,,0.27,-1.0,-14372264.11,0.0773921012878
0.0978402122855,-0.0188076607883,-0.996109127998,0.240884065628,,,,,0.15,-0.96,0.47,0.0779960155487
0.0999242216349,-0.0173364449292,-0.996896386147,0.244526147842,,,,,0.06,-0.92,0.49,0.0785431861877
0.100812651217,-0.0175462290645,-0.998327732086,0.248090028763,,,,,0.04,-0.9,0.52,0.0799081325531
0.100191295147,-0.0206999741495,-0.999175906181,0.251705169678,,,,,0.08,-0.85,0.6,0.0804970264435
0.0993175432086,-0.0219118017703,-0.998429298401,0.254859209061,,,,,0.1,-0.85,0.61,0.0810441970825
0.100445270538,-0.019234245643,-0.997697472572,0.258449077606,,,,,0.14,-0.84,0.62,0.0815901756287
0.100048862398,-0.0184780713171,-0.996850132942,0.261552095413,,,,,0.15,-0.84,0.62,0.0821371078491
0.0972042754292,-0.0211179554462,-0.99592089653,0.265213012695,,,,,0.19,-0.88,0.64,0.0835812091827
0.0958784148097,-0.0217092391104,-0.995234966278,0.268817186356,,,,,0.27,-0.91,0.62,0.0841732025146
0.0968430712819,-0.0204920321703,-0.995585203171,0.272409200668,,,,,0.35,-0.93,0.59,0.0847179889679
0.0975636392832,-0.020994534716,-0.995741724968,0.276043176651,,,,,0.37,-0.93,0.58,0.0852642059326
0.0974166765809,-0.021345783025,-0.99441409111,0.279635190964,,,,,0.39,-0.92,0.6,0.0858101844788
0.0978765115142,-0.0206851698458,-0.99351477623,0.282715082169,,,,,0.39,-0.92,0.62,0.0871779918671
0.100423663855,-0.0195250380784,-0.993272542953,0.286395072937,,,,,0.45,-0.87,0.7,0.0877811908722
0.103811822832,-0.0172645542771,-0.993083238602,0.289498090744,,,,,0.47,-0.84,0.74,0.0883321762085
0.103927068412,-0.0171992518008,-0.994820833206,0.293143033981,,,,,0.47,-0.76,0.82,0.0888772010803
0.100956656039,-0.0192565750331,-0.99626326561,0.296265125275,,,,,0.44,-0.72,0.86,0.0894231796265
0.0986943170428,-0.0207257848233,-0.997608423233,0.299858093262,,,,,0.37,-0.66,0.94,0.0907981395721
0.097102470696,-0.0207883324474,-0.998491764069,0.303493976593,,,,,0.32,-0.64,0.95,0.0913891792297
0.0956777632236,-0.0209239851683,-0.997936367989,0.3065969944,,,,,0.3,-0.64,0.91,0.0919342041016
0.0956186428666,-0.0207361150533,-0.99762237072,0.310198068619,,,,,0.28,-0.64,0.88,0.0924870967865
0.0985579267144,-0.0175987910479,-0.997577309608,0.313832998276,,,,,0.24,-0.67,0.78,0.093080997467
0.098164357245,-0.019289644435,-0.994942307472,0.320270061493,,,,,0.21,-0.69,0.73,0.0944449901581
0.0974287837744,-0.0189968161285,-0.996446013451,0.323903083801,,,,,0.16,-0.76,0.59,0.0950310230255
0.101798713207,-0.0169132631272,-0.998202085495,0.327519178391,,,,,0.15,-0.78,0.57,0.0955760478973
0.101723447442,-0.0173202492297,-0.998250842094,0.331109046936,,,,,0.13,-0.82,0.55,0.0961229801178
0.100150823593,-0.0189426299185,-0.996577858925,0.334799051285,,,,,0.12,-0.84,0.56,0.0966701507568
0.0987771973014,-0.019223049283,-0.995647549629,0.338392019272,,,,,0.09,-0.86,0.61,0.0980331897736
0.0972149297595,-0.0184727329761,-0.996317505836,0.341974020004,,,,,0.04,-0.85,0.7,0.0986220836639
0.097394824028,-0.0190130602568,-0.997928142548,0.34561920166,,,,,-0.01,-0.8,0.8,0.0991830825806
0.0980189740658,-0.0213257838041,-0.99858891964,0.349218130112,,,,,-0.04,-0.78,0.86,0.0997681617737
0.0987582802773,-0.0218872576952,-0.998289823532,0.352871179581,,,,,-0.04,-0.77,0.96,0.100316047668
0.0999902188778,-0.0189465228468,-0.996485590935,0.356466054916,,,,,-0.03,-0.87,1.01,0.101675033569
0.0994870364666,-0.0159251764417,-0.994887709618,0.36005115509,,,,,0.02,-0.87,1.02,0.102275133133
0.098095074296,-0.0157620757818,-0.995317816734,0.363686084747,,,,,0.03,-0.85,1.0,0.102861166
0.0985382273793,-0.0170083548874,-0.995269656181,0.367282152176,,,,,0.07,-0.82,0.92,0.103414058685
0.100887484848,-0.016083907336,-0.994814753532,0.370902061462,,,,,0.1,-0.81,0.87,0.103960037231
0.101706817746,-0.015519881621,-0.995603442192,0.374582052231,,,,,0.14,-0.9,0.84,0.105318069458
0.0992055386305,-0.0186059009284,-0.995250582695,0.378171205521,,,,,0.71,-8657212.7,-14372176.9,0.10592508316
0.0976419374347,-0.0202596914023,-0.993603825569,0.381765127182,,,,,0.28,-0.89,0.59,0.106495141983
0.0970948338509,-0.0202959123999,-0.993847250938,0.385409116745,,,,,0.27,-0.88,0.55,0.107042074203
0.0977723672986,-0.0204927623272,-0.995082497597,0.389031171799,,,,,0.25,-0.88,0.5,0.108404159546
0.0994837582111,-0.0187015980482,-0.99529671669,0.392619132996,,,,,0.23,-0.87,0.5,0.108992099762
0.0973188877106,-0.0186448860914,-0.995084404945,0.396262168884,,,,,0.24,-0.86,0.51,0.109542131424
0.0943892523646,-0.0202645864338,-0.994435548782,0.39985704422,,,,,0.26,-0.86,0.52,0.110085010529
0.0946465432644,-0.0200956873596,-0.994074583054,0.403517007828,,,,,0.29,-0.89,0.53,0.110632181168
0.0960812270641,-0.0189797077328,-0.993759512901,0.407111167908,,,,,0.3,-0.93,0.53,0.112002134323
0.0971422418952,-0.0185575056821,-0.994233131409,0.410710096359,,,,,0.26,-1.0,0.57,0.112590074539
0.0983043164015,-0.0194226745516,-0.995721697807,0.414366006851,,,,,0.25,-1.01,0.6,0.11318898201
0.0981055647135,-0.0197472441941,-0.994714140892,0.417960166931,,,,,0.24,-1.01,0.65,0.113737106323
0.097954981029,-0.0196191016585,-0.993524312973,0.421617031097,,,,,0.24,-1.01,0.68,0.114284992218
0.0988013893366,-0.019322598353,-0.995588779449,0.425257205963,,,,,0.22,-1.04,0.72,0.115653038025
0.0984912961721,-0.0187798906118,-0.998281240463,0.428846120834,,,,,0.16,-1.1,0.83,0.116271018982
0.0989795476198,-0.0189972985536,-0.999191403389,0.432438135147,,,,,0.14,-1.11,0.88,0.116819143295
0.101221226156,-0.0180562641472,-0.99836909771,0.436073064804,,,,,0.14,-1.12,0.94,0.117366075516
0.101506665349,-0.0177166219801,-0.998222231865,0.439694166183,,,,,0.15,-1.12,1.04,0.117915153503
0.0993147939444,-0.0194590967149,-0.997250199318,0.443397045135,,,,,0.17,-1.11,1.08,0.119281053543
0.0982423126698,-0.0200299751014,-0.995515465736,0.446998119354,,,,,0.22,-1.1,1.19,0.119867086411
0.100383013487,-0.0186082478613,-0.994581818581,0.450594186783,,,,,0.23,-1.1,1.23,0.120392084122
0.101234011352,-0.0178059414029,-0.994644880295,0.454282999039,,,,,0.23,-1.1,1.27,0.120952129364
0.099136158824,-0.0183612182736,-0.995512247086,0.457906007767,,,,,0.23,-1.08,1.27,0.121474981308
0.0981407761574,-0.0183792989701,-0.996343493462,0.461500167847,,,,,0.23,-1.03,1.22,0.122888088226
0.0984501242638,-0.0176946353167,-0.996542096138,0.465145111084,,,,,0.23,-0.98,1.14,0.123481035233
0.0986859872937,-0.0177408810705,-0.996977448463,0.468741178513,,,,,0.19,-0.96,1.07,0.124029159546
0.0993549600244,-0.0185670368373,-0.996671199799,0.493496179581,,,,,0.17,-0.97,1.02,0.124574184418
0.0997132062912,-0.0189927574247,-0.996428847313,0.497095108032,,,,,0.11,-0.99,0.93,0.12511920929
0.098910741508,-0.0190799124539,-0.996644854546,0.500693082809,,,,,0.1,-1.0,0.88,0.126485109329
0.0991014689207,-0.0186329614371,-0.995530247688,0.504376173019,,,,,0.12,-0.98,0.75,0.12708902359
0.100066661835,-0.0183703992516,-0.994052767754,0.507978200912,,,,,0.13,-0.98,0.72,0.127645015717
0.0990930721164,-0.0189854446799,-0.993348956108,0.543220043182,,,,,0.13,-0.99,0.68,0.128190994263
0.0971282199025,-0.0188877824694,-0.993608117104,0.546813011169,,,,,0.12,-0.99,0.66,0.128736019135
0.0962066426873,-0.0182534400374,-0.995025157928,0.55041217804,,,,,0.11,-0.97,0.65,0.130106210709
0.0966035351157,-0.0187728907913,-0.996235609055,0.554041147232,,,,,0.15,-0.94,0.66,0.130697011948
0.0984964966774,-0.0191663149744,-0.994822144508,0.557634115219,,,,,0.19,-0.96,0.68,0.131242990494
0.0996459499002,-0.0191722083837,-0.994900107384,0.593191146851,,,,,0.2,-0.99,0.69,0.131790161133
0.100021913648,-0.0190557148308,-0.998183846474,0.596786022186,,,,,0.17,-1.05,0.71,0.132333993912
0.101421251893,-0.0173137243837,-0.999624729156,0.600383996964,,,,,0.15,-1.08,0.71,0.133777141571
0.10069526732,-0.0164210386574,-1.00024926662,0.604013204575,,,,,0.17,-1.15,0.72,0.134366989136
0.0985480323434,-0.017228314653,-1.00049865246,0.60760307312,,,,,0.21,-1.18,0.71,0.1349132061
0.0977876782417,-0.0195126701146,-0.999668836594,0.641227006912,,,,,0.28,-1.24,0.66,0.135457992554
0.098854586482,-0.020839555189,-0.99805867672,0.644904136658,,,,,0.31,-1.27,0.64,0.136002063751
0.10033389926,-0.018749171868,-0.997219443321,0.648506164551,,,,,0.34,-1.29,0.6,0.137368202209
0.100514024496,-0.0173864718527,-0.997209191322,0.652096033096,,,,,0.39,-1.27,0.55,0.137956142426
0.0999483168125,-0.0189457256347,-0.996404767036,0.683777093887,,,,,0.46,-1.25,0.48,0.138500213623
0.0995870158076,-0.0210443921387,-0.99577152729,0.68737912178,,,,,0.49,-1.24,0.45,0.139047145844
0.0993314385414,-0.0212009120733,-0.996315717697,0.690966129303,,,,,0.5,-1.24,0.43,0.13960313797
0.100047558546,-0.0200706291944,-0.99720954895,0.694595098495,,,,,0.49,-1.24,0.44,0.140966176987
0.100896112621,-0.0187360756099,-0.997809052467,0.69819021225,,,,,0.43,-1.17,0.51,0.141558170319
0.101890936494,-0.0184861794114,-0.999314785004,0.733590126038,,,,,0.41,-1.13,0.51,0.142104148865
0.10200599581,-0.0196904484183,-1.00013804436,0.737199068069,,,,,0.34,-1.05,0.47,0.142663002014
0.101220667362,-0.0187939386815,-0.99907040596,0.740795135498,,,,,0.29,-1.02,0.45,0.143264055252
0.100359037519,-0.0170821342617,-0.996796131134,0.744420051575,,,,,0.19,-0.96,0.45,0.144634008408
0.0981496721506,-0.0181102212518,-0.994894981384,0.748018026352,,,,,0.11,-0.9,0.48,0.145220994949
0.0968707352877,-0.0199248250574,-0.994201779366,0.783178091049,,,,,0.06,-0.84,0.52,0.145771026611
0.0981261506677,-0.0202419068664,-0.995309233665,0.786778211594,,,,,0.05,-0.83,0.55,0.14631319046
0.0990921333432,-0.0200191289186,-0.995969891548,0.790374040604,,,,,0.06,-0.84,0.59,0.146857976913
0.0988918542862,-0.0200582146645,-0.995859980583,0.794021129608,,,,,0.08,-0.91,0.71,0.148222208023
0.0995901972055,-0.0197806786746,-0.996434926987,0.797616004944,,,,,0.1,-1.07,0.93,0.148816108704
0.0997527465224,-0.0194775294513,-0.997617959976,0.831430196762,,,,,0.1,-1.12,0.98,0.149339199066
0.0987025648355,-0.0198078621179,-0.997464776039,0.835112094879,,,,,0.1,-1.17,-18119393.28,0.14988899231
0.0977551937103,-0.0200265925378,-0.996534705162,0.838707208633,,,,,0.12,-1.25,1.04,0.150412082672
0.0978962704539,-0.0193047914654,-0.999406576157,0.842305183411,,,,,0.13,-1.29,1.05,0.151807069778
0.0994706228375,-0.0179017242044,-1.00203478336,0.873661994934,,,,,0.17,-1.34,1.05,0.152397155762
0.100310400128,-0.0168053749949,-1.00068211555,0.87725520134,,,,,0.16,-1.33,0.98,0.152985095978
0.100678890944,-0.0162706244737,-0.999203681946,0.880841016769,,,,,0.16,-1.31,0.94,0.15353512764
0.100813150406,-0.0164607968181,-0.997861385345,0.884464025497,,,,,0.16,-1.28,0.91,0.154079198837
0.0992311388254,-0.0176481157541,-0.995899200439,0.888055086136,,,,,0.16,-1.21,0.89,0.155444145203
0.0973835885525,-0.0189391374588,-0.99562227726,0.923403978348,,,,,0.93,-8657211.86,-14372176.9,0.156038999557
0.0984251946211,-0.0198202747852,-0.996731162071,0.927000045776,,,,,0.14,-1.05,0.97,0.156630992889
0.0995296090841,-0.0207160580903,-0.996591567993,0.930589199066,,,,,0.1,-1.02,1.0,0.157178163528
0.0991740226746,-0.0208794604987,-0.995760679245,0.934229135513,,,,,0.08,-1.01,1.01,0.15856218338
0.0997193604708,-0.0196689497679,-0.996879816055,0.937815189362,,,,,0.05,-0.97,0.94,0.159151077271
0.0997085273266,-0.0176280867308,-0.998882770538,0.97297501564,,,,,0.06,-0.97,0.89,0.159697055817
0.0990992859006,-0.0170735027641,-0.997913122177,0.97656917572,,,,,0.07,-1.0,0.78,0.160242080688
0.0993454232812,-0.0175304673612,-0.996064782143,0.980167150497,,,,,0.07,-1.02,0.75,0.160803079605
0.0997446551919,-0.0183595139533,-0.994899868965,0.983814001083,,,,,0.04,-1.07,0.74,0.162178993225
0.0990574583411,-0.0184244979173,-0.994719982147,1.01637601852,,,,,0.02,-1.1,0.75,0.162770032883
0.0991180688143,-0.0160223450512,-0.994745969772,1.0199739933,,,,,0.04,-1.11,0.76,0.16334605217
0.101215206087,-0.0150135476142,-0.994885921478,1.02359819412,,,,,0.06,-1.11,0.76,0.163896083832
0.100047744811,-0.0176205057651,-0.995044589043,1.02723407745,,,,,0.11,-1.11,0.8,0.164441108704
0.0965483039618,-0.0197660457343,-0.994178295135,1.03083205223,,,,,0.13,-1.11,0.84,0.165811061859
0.0958338975906,-0.0198024678975,-0.99471616745,1.06306099892,,,,,0.21,-1.07,0.95,0.166402101517
0.0965805873275,-0.0203507095575,-0.996881961823,1.06666207314,,,,,0.22,-1.03,0.97,0.166947126389
0.096620708704,-0.0207434315234,-0.997852444649,1.07026219368,,,,,0.24,-0.95,1.0,0.167526006699
0.0960053727031,-0.0202129986137,-0.996064424515,1.0738902092,,,,,0.25,-0.93,1.01,0.168074131012
0.0965271741152,-0.0198368374258,-0.994345664978,1.07748603821,,,,,0.24,-0.92,0.98,0.169434070587
0.0977541431785,-0.0180968958884,-0.994013547897,1.11343717575,,,,,0.93,-8657211.62,-14372176.9,0.170029163361
0.0989461094141,-0.0185107924044,-0.992892026901,1.11702609062,,,,,0.13,-0.93,0.89,0.170621156693
0.099074088037,-0.0211106613278,-0.992414832115,1.12062716484,,,,,0.11,-0.93,0.91,0.171167135239
0.0978979244828,-0.0213524904102,-0.993558526039,1.12426519394,,,,,0.12,-0.95,0.92,0.172528028488
0.0974248945713,-0.01932522282,-0.995809674263,1.12786412239,,,,,0.19,-1.1,0.9,0.173161029816
0.0975652337074,-0.018289975822,-0.996337532997,1.16273903847,,,,,0.21,-1.14,0.88,0.173710107803
0.0979460552335,-0.0186015740037,-0.996717095375,1.1663839817,,,,,0.24,-1.19,0.87,0.174255132675
0.0991465076804,-0.0188396368176,-0.99996817112,1.16998004913,,,,,0.24,-1.2,0.86,0.17480301857
0.100363694131,-0.0181424338371,-1.00080645084,1.17360901833,,,,,0.25,-1.23,0.85,0.176167011261
0.0991550385952,-0.0186381023377,-0.997747063637,1.20645618439,,,,,0.26,-1.26,0.8,0.176755189896
0.097492299974,-0.0221704225987,-0.99426984787,1.21005702019,,,,,0.27,-1.26,0.75,0.177287101746
0.0984665378928,-0.0229569654912,-0.993917226791,1.21371912956,,,,,0.28,-1.25,0.75,0.17783498764
0.0996454656124,-0.020913599059,-0.995288848877,1.21731615067,,,,,0.27,-1.19,0.79,0.178381204605
0.09921631217,-0.0205369014293,-0.996082663536,1.22091007233,,,,,0.25,-1.16,0.8,0.179743051529
0.0991521552205,-0.0208667628467,-0.996149301529,1.25315618515,,,,,0.23,-1.12,0.81,0.180333137512
0.0991924107075,-0.0203300584108,-0.995830893517,1.25676012039,,,,,0.23,-1.1,0.81,0.180878162384
0.0977827236056,-0.020092966035,-0.995102286339,1.26036715508,,,,,0.24,-1.05,0.83,0.181442022324
0.0962425023317,-0.0205557961017,-0.993770480156,1.26413798332,,,,,0.25,-1.02,0.85,0.182000160217
0.0958686321974,-0.0191084910184,-0.992722392082,1.26772713661,,,,,0.24,-0.96,0.89,0.183423042297
0.0971867963672,-0.0164399910718,-0.993495821953,1.30314302444,,,,,0.88,-8657211.38,-14372176.9,0.184053182602
0.0984093621373,-0.0172685831785,-0.994514465332,1.3067471981,,,,,0.2,-0.87,0.83,0.184643983841
0.0990737080574,-0.0191950947046,-0.995496153831,1.31034517288,,,,,0.21,-0.85,0.8,0.185189008713
0.0988513827324,-0.0185486171395,-0.995933771133,1.31397604942,,,,,0.22,-0.85,0.8,0.186558008194
0.0972377434373,-0.0187791343778,-0.997115731239,1.31757903099,,,,,0.2,-0.86,0.85,0.187149047852
0.0975207909942,-0.0186758693308,-0.998309254646,1.35283899307,,,,,0.18,-0.86,0.86,0.187694072723
0.0997309982777,-0.0176701378077,-0.998516082764,1.35644698143,,,,,0.15,-0.86,0.83,0.18824005127
0.1006764099,-0.0186608079821,-0.999390602112,1.36003613472,,,,,0.16,-0.86,0.79,0.18878698349
0.100312232971,-0.0201818346977,-0.997964978218,1.36366415024,,,,,0.18,-0.87,0.75,0.190152168274
0.0994778573513,-0.0208742823452,-0.996204733849,1.39499807358,,,,,0.25,-0.94,0.66,0.190739154816
0.0995139405131,-0.0214211661369,-0.995763421059,1.39859604836,,,,,0.26,-1.02,0.65,0.19126200676
0.100679978728,-0.0208083819598,-0.994706869125,1.40218520164,,,,,0.27,-1.06,0.64,0.191807985306
0.0998708754778,-0.019243856892,-0.994275569916,1.40590000153,,,,,0.27,-1.1,0.62,0.192353010178
0.0975066125393,-0.0178037341684,-0.993781685829,1.40949010849,,,,,0.28,-1.16,0.55,0.193768978119
0.0965279191732,-0.0174686480314,-0.99354827404,1.44289803505,,,,,0.24,-1.23,0.51,0.194358110428
0.097129739821,-0.0187704470009,-0.994953632355,1.44649100304,,,,,0.22,-1.24,0.53,0.194904088974
0.0977746546268,-0.0196285005659,-0.994999647141,1.45008802414,,,,,0.2,-1.24,0.58,0.195448160172
0.0967872515321,-0.0193139556795,-0.993996858597,1.45372319221,,,,,0.17,-1.23,0.7,0.196001052856
0.0967415124178,-0.0174861177802,-0.993953704834,1.45731210709,,,,,0.17,-1.22,0.76,0.197381019592
0.0990619584918,-0.0153252389282,-0.99486374855,1.49327802658,,,,,0.87,-8657211.14,-14372176.9,0.197978019714
0.100138761103,-0.0147260781378,-0.996059417725,1.49687504768,,,,,0.04,-1.01,0.99,0.198571205139
0.0981396958232,-0.0164769235998,-0.997087597847,1.50046610832,,,,,0.04,-0.97,1.03,0.199115991592
0.0958532094955,-0.0197375677526,-0.996483683586,1.50410199165,,,,,0.06,-0.91,1.06,0.200513124466
0.0965886563063,-0.0198789518327,-0.993554115295,1.50719308853,,,,,0.08,-0.86,0.96,0.201100111008
0.0990765467286,-0.0178795084357,-0.991923809052,1.54284906387,,,,,0.07,-0.85,0.9,0.201647043228
0.100475229323,-0.0174330007285,-0.994104862213,1.54644918442,,,,,0.06,-0.84,0.85,0.2021920681
0.100100547075,-0.0182008538395,-0.996797204018,1.55004310608,,,,,0.06,-0.8,0.75,0.202737092972
0.098185762763,-0.0193095225841,-0.997969269753,1.55365109444,,,,,0.07,-0.79,0.71,0.204320192337
0.0972066149116,-0.0201838761568,-0.998422622681,1.58506298065,,,,,0.59,-8657211.02,-14372176.9,0.204918146133
0.0971772372723,-0.0206359736621,-0.99738240242,1.58867406845,,,,,0.16,-0.94,0.55,0.205533981323
0.0978386327624,-0.0196687933058,-0.995826840401,1.59228014946,,,,,0.16,-0.98,0.57,0.206087112427
0.098773509264,-0.0183926932514,-0.994531273842,1.59592103958,,,,,0.15,-1.01,0.63,0.207451105118
0.0988327860832,-0.0187634713948,-0.995457649231,1.59952306747,,,,,0.11,-1.0,-8656782.34,0.208054065704
0.0988030508161,-0.0190274138004,-0.99681866169,1.63338112831,,,,,0.09,-0.97,0.78,0.208649158478
0.100703895092,-0.0184226613492,-0.996295213699,1.63697814941,,,,,0.13,-0.93,0.87,0.20919418335
0.100235387683,-0.0188347473741,-0.996245384216,1.6405570507,,,,,0.15,-0.89,0.91,0.210561990738
-0.018894020468,0.0190930087119,316.95690918,1.64419007301,,,,,0.13,-0.8,0.91,0.211153030396
0.0972802489996,-0.0192989502102,-0.997491955757,1.64774298668,,,,,0.14,-0.8,0.89,0.211698055267
0.0981331765652,-0.019123326987,-0.996800541878,1.68315315247,,,,,0.21,-0.84,0.83,0.212242126465
0.0977105498314,-0.0176887717098,-0.995788216591,1.68675112724,,,,,0.27,-0.88,0.8,0.212826013565
0.0981305912137,-0.0178492255509,-0.997323036194,1.69037508965,,,,,0.38,-0.99,0.73,0.214205026627
0.0984974056482,-0.0189971327782,-0.998207330704,1.69400620461,,,,,0.39,-1.08,-8656782.34,0.214806079865
0.098783813417,-0.0186178628355,-0.996296882629,1.6975979805,,,,,0.31,-1.21,0.5,0.215408086777
0.0993972495198,-0.0179246272892,-0.995049595833,1.73285913467,,,,,0.33,-1.27,0.48,0.215954065323
0.0986037552357,-0.0183746498078,-0.995807766914,1.73646211624,,,,,0.34,-1.28,0.5,0.217347145081
0.0976311936975,-0.0192145127803,-0.995775461197,1.74005317688,,,,,0.33,-1.22,-14372176.9,0.217943191528
0.0990402922034,-0.0183803159744,-0.995614886284,1.74368810654,,,,,0.29,-1.1,0.78,0.218538045883
0.100786581635,-0.0172827150673,-0.995834350586,1.77630209923,,,,,0.3,-1.08,0.82,0.219082117081
0.0996046066284,-0.019672324881,-0.994870185852,1.77989912033,,,,,0.39,-1.04,0.87,0.220441102982
0.0984915271401,-0.0218921992928,-0.994470834732,1.78354501724,,,,,0.49,-0.98,0.89,0.221031188965
0.098468452692,-0.0207111537457,-0.994295716286,1.78716802597,,,,,0.56,-0.89,0.86,0.221577167511
0.0980009585619,-0.0190137624741,-0.993818283081,1.79076218605,,,,,0.58,-0.85,0.83,0.222124099731
0.0984535440803,-0.0184740480036,-0.99515068531,1.8242661953,,,,,0.62,-0.8,0.77,0.222671031952
0.100204154849,-0.0178272854537,-0.996021509171,1.82803916931,,,,,0.65,-0.79,0.73,0.224085092545
0.0999792218208,-0.0180418975651,-0.995344161987,1.83162999153,,,,,0.69,-0.79,0.68,0.224681138992
0.0977728888392,-0.0194305125624,-0.995792984962,1.83527398109,,,,,0.67,-0.79,0.68,0.225203990936
0.0965710356832,-0.0205942001194,-0.995843052864,1.83886814117,,,,,0.63,-0.83,0.7,0.225749015808
0.0975266993046,-0.0193943921477,-0.994912028313,1.87314915657,,,,,0.61,-0.86,0.72,0.226294994354
0.0994250550866,-0.017770152539,-0.99500644207,1.87674713135,,,,,0.55,-0.96,0.8,0.227657079697
0.100587144494,-0.0179497618228,-0.997075080872,1.88033509254,,,,,0.45,-1.06,0.88,0.228244066238
0.100077435374,-0.018243195489,-0.997969388962,1.88396120071,,,,,0.31,-1.16,0.94,0.228793144226
0.0977991446853,-0.0182662960142,-0.996639251709,1.88754916191,,,,,0.25,-1.2,0.96,0.229336023331
0.096699103713,-0.0174476187676,-0.99652838707,1.92261719704,,,,,0.2,-1.23,0.96,0.229885101318
0.0974081978202,-0.0164199192077,-0.997720003128,1.9262611866,,,,,0.15,-1.25,0.97,0.231247186661
0.0991368144751,-0.0172021891922,-0.998889684677,1.9298491478,,,,,0.1,-1.21,0.98,0.231837034225
0.100636430085,-0.0183917880058,-0.999238491058,1.93348908424,,,,,0.09,-1.2,0.98,0.232376098633
0.100156724453,-0.0184027142823,-0.997021436691,1.96529507637,,,,,0.08,-1.2,0.97,0.232998132706
0.0996874719858,-0.0177301000804,-0.994745850563,1.9688911438,,,,,0.08,-1.2,0.92,0.233549118042
0.0988046973944,-0.0181792024523,-0.994761109352,1.97248721123,,,,,0.1,-1.19,0.88,0.234953165054
0.0975847989321,-0.0194215457886,-0.995680093765,1.97613620758,,,,,0.15,-1.14,0.76,0.235545158386
0.0981296002865,-0.0183256175369,-0.995747685432,1.97972297668,,,,,0.18,-1.11,0.72,0.236091136932
0.0992798507214,-0.0174300037324,-0.994272470474,2.01334404945,,,,,0.2,-1.1,0.7,0.236638069153
0.0991874337196,-0.0181478541344,-0.994392871857,2.01693916321,,,,,0.22,-1.09,0.68,0.23718214035
0.0982564389706,-0.0182535592467,-0.99646115303,2.02053117752,,,,,0.27,-1.06,0.65,0.238561153412
0.0999648272991,-0.0181640703231,-0.997555017471,2.02416300774,,,,,0.64,-8657210.42,-14372176.9,0.23915719986
0.101442143321,-0.018595635891,-0.99656188488,2.02772212029,,,,,0.44,-0.96,0.67,0.239747047424
0.0996136367321,-0.0174794029444,-0.996275305748,2.06305217743,,,,,0.47,-0.91,0.7,0.24029302597
0.0977139174938,-0.0164326336235,-0.996407866478,2.06664705276,,,,,0.46,-0.9,0.7,0.241656064987
0.0969295427203,-0.017062658444,-0.995959281921,2.0702381134,,,,,0.41,-0.91,0.69,0.242242097855
0.0965758934617,-0.0170208718628,-0.996473789215,2.07386517525,,,,,0.38,-0.92,0.69,0.242825031281
0.0964780524373,-0.0170496646315,-0.997728466988,2.07745599747,,,,,0.32,-0.95,0.71,0.243386983871
0.098923817277,-0.0171126108617,-0.997948288918,2.11270809174,,,,,0.29,-0.96,0.73,0.243935108185
0.101128935814,-0.0166749749333,-0.996438503265,2.11634707451,,,,,0.26,-0.98,0.76,0.245299100876
0.100664503872,-0.0186111871153,-0.993957638741,2.11993598938,,,,,0.25,-1.0,0.8,0.245887994766
0.100075811148,-0.0198686998338,-0.993804812431,2.12357020378,,,,,0.24,-1.04,0.84,0.246410131454
0.0990754589438,-0.0189791563898,-0.994927406311,2.15489220619,,,,,0.23,-1.05,0.85,0.246956110001
0.0983783006668,-0.0189648848027,-0.993296146393,2.15860915184,,,,,0.22,-1.05,0.84,0.247500181198
0.0983471497893,-0.0193480383605,-0.993580698967,2.16220211983,,,,,0.23,-1.05,0.82,0.248861074448
0.0988603979349,-0.0186400841922,-0.997998595238,2.16586017609,,,,,0.27,-1.07,0.76,0.249449014664
0.0989905968308,-0.0183223504573,-0.999199509621,2.16944909096,,,,,0.27,-1.09,0.75,0.249994039536
0.098587974906,-0.0190364103764,-0.996984243393,2.20315504074,,,,,0.24,-1.1,0.74,0.250571012497
0.0983799621463,-0.0190532300621,-0.9952698946,2.20673108101,,,,,0.22,-1.09,0.75,0.251116037369
0.098543100059,-0.0192910544574,-0.994772315025,2.21032810211,,,,,0.2,-1.06,0.78,0.252475976944
0.0980005934834,-0.0195532180369,-0.995646119118,2.21395301819,,,,,0.81,-8657210.18,-14372176.9,0.253128051758
0.0968897044659,-0.0191185045987,-0.996198892593,2.21754813194,,,,,0.32,-1.06,0.86,0.253720998764
0.0970185697079,-0.0175981465727,-0.995611310005,2.25321602821,,,,,0.35,-1.01,0.9,0.254269123077
0.0973237454891,-0.0171375442296,-0.995167970657,2.25680804253,,,,,0.36,-0.98,0.91,0.25563120842
0.0977841615677,-0.0173891559243,-0.995189428329,2.26040101051,,,,,0.34,-0.97,0.91,0.25622010231
0.0999572724104,-0.0172600727528,-0.995503902435,2.26403617859,,,,,0.34,-0.99,0.9,0.256769180298
0.100993826985,-0.0185311120003,-0.996186733246,2.26760721207,,,,,0.34,-1.06,0.89,0.257313013077
0.0996704027057,-0.0189300365746,-0.996585607529,2.30248808861,,,,,0.33,-1.08,0.9,0.257858991623
0.0991349890828,-0.018931793049,-0.995359063148,2.30612897873,,,,,0.28,-1.1,0.96,0.259224176407
0.0991286039352,-0.0193077865988,-0.995049238205,2.30972099304,,,,,0.2,-1.09,-14372176.9,0.259819030762
0.0990648269653,-0.0197253432125,-0.997226476669,2.31340098381,,,,,0.13,-1.09,1.09,0.260415077209
0.0994536727667,-0.0199336353689,-0.998019218445,2.34498310089,,,,,0.12,-1.08,1.1,0.260960102081
0.0995780229568,-0.0186712294817,-0.996527910233,2.34859609604,,,,,0.12,-1.08,1.1,0.262340068817
0.0995491668582,-0.0181317422539,-0.996382117271,2.35219812393,,,,,0.11,-1.05,1.08,0.262981176376
0.0996519476175,-0.0167880039662,-0.994673490524,2.35584521294,,,,,0.1,-1.05,1.05,0.263531208038
0.0995835512877,-0.0161405596882,-0.991556048393,2.35943412781,,,,,0.09,-1.06,0.99,0.264077186584
0.098984323442,-0.0182148572057,-0.992475390434,2.39354610443,,,,,0.08,-1.07,0.96,0.264622211456
0.0982755348086,-0.0186313111335,-0.995607018471,2.39715600014,,,,,0.07,-1.09,0.95,0.265986204147
0.0990348607302,-0.0170395430177,-0.995317339897,2.40075302124,,,,,0.07,-1.11,0.98,0.266607999802
0.100406244397,-0.0170907583088,-0.994442343712,2.40440797806,,,,,0.08,-1.11,1.03,0.267158985138
0.0994246229529,-0.018809562549,-0.995532870293,2.40798711777,,,,,0.09,-1.1,1.04,0.2676820755
0.0982780829072,-0.0197495874017,-0.996228933334,2.44328999519,,,,,0.09,-1.08,1.05,0.268227100372
0.098977252841,-0.0192383807153,-0.995871782303,2.44689202309,,,,,0.1,-1.06,1.05,0.269589185715
0.0992318838835,-0.0190749298781,-0.996332287788,2.45048117638,,,,,0.17,-1.02,1.05,0.270177125931
0.099016353488,-0.019458418712,-0.996155619621,2.45410108566,,,,,0.19,-1.0,1.05,0.270722150803
0.100521922112,-0.0186926461756,-0.995963692665,2.45769309998,,,,,0.22,-0.98,1.04,0.271268129349
0.100713774562,-0.0190946590155,-0.996666193008,2.49241709709,,,,,0.23,-0.97,1.03,0.271821022034
0.0991082638502,-0.0202679373324,-0.997529268265,2.49606800079,,,,,0.23,-0.95,1.03,0.27322602272
0.0988431796432,-0.0203473288566,-0.998153448105,2.49965620041,,,,,0.23,-0.93,1.05,0.273817062378
0.0992358997464,-0.0198400188237,-0.996866226196,2.5032851696,,,,,0.22,-0.9,1.05,0.274365186691
0.0993651747704,-0.0183618273586,-0.996246695518,2.53482913971,,,,,0.21,-0.88,1.04,0.274911165237
0.0999649241567,-0.0172170717269,-0.999032020569,2.5384311676,,,,,0.19,-0.86,1.02,0.275454998016
0.0990253537893,-0.0178678296506,-1.00026357174,2.54203820229,,,,,0.15,-0.81,1.0,0.27681517601
0.0980442017317,-0.0183512624353,-0.996135592461,2.54570508003,,,,,0.13,-0.74,0.96,0.277404069901
0.0995560735464,-0.0176463332027,-0.992752313614,2.54927301407,,,,,0.13,-0.72,0.94,0.277953147888
0.102327033877,-0.0166616681963,-0.991489171982,2.58334803581,,,,,0.13,-0.71,0.9,0.278499126434
0.103424981236,-0.0169249940664,-0.99232172966,2.58694219589,,,,,0.14,-0.71,0.84,0.279044151306
0.101559236646,-0.0170976500958,-0.993979930878,2.59054207802,,,,,0.15,-0.72,0.83,0.280407190323
0.0988183617592,-0.0178687144071,-0.995287537575,2.59417009354,,,,,0.85,-8657209.7,-14372176.9,0.281006097794
0.0987383872271,-0.0183151308447,-0.996388196945,2.59776306152,,,,,0.28,-0.92,0.81,0.281578063965
0.0997030884027,-0.0180669035763,-0.99815762043,2.63320302963,,,,,0.29,-0.96,0.79,0.282123088837
0.0998324751854,-0.0193067006767,-0.997810721397,2.63679599762,,,,,0.3,-0.99,0.78,0.283564090729
0.0998001396656,-0.0187703352422,-0.995489597321,2.64036917686,,,,,0.33,-1.05,0.8,0.284152984619
0.0987117886543,-0.0170897524804,-0.994245290756,2.64399600029,,,,,0.35,-1.07,0.8,0.284700155258
0.0981249585748,-0.0178128164262,-0.995606780052,2.64758515358,,,,,0.37,-1.1,0.79,0.28524518013
0.099155113101,-0.0189189892262,-0.997017264366,2.68134307861,,,,,0.38,-1.11,0.74,0.285796165466
0.100670009851,-0.0192445386201,-0.997214794159,2.68498301506,,,,,0.36,-1.12,0.71,0.287176132202
0.100975230336,-0.0180496256799,-0.997011780739,2.68857717514,,,,,0.6,-8657209.58,-14372176.9,0.287770032883
0.0997973978519,-0.0175235774368,-0.99703514576,2.69217801094,,,,,0.13,-1.23,0.52,0.288362979889
0.0982465147972,-0.0186399314553,-0.99623298645,2.72509098053,,,,,0.11,-1.26,0.49,0.288910150528
0.0977547168732,-0.0189947579056,-0.996066808701,2.72869420052,,,,,0.07,-1.28,0.45,0.290271043777
0.0984516590834,-0.0197055768222,-0.998309016228,2.73228597641,,,,,0.04,-1.29,0.41,0.2908680439
0.0992452055216,-0.0202413890511,-0.999656319618,2.73593306541,,,,,0.04,-1.29,0.42,0.29141497612
0.0990630686283,-0.0195438917726,-0.997241020203,2.7395260334,,,,,0.06,-1.27,0.46,0.291963100433
0.0990724265575,-0.017667023465,-0.994880437851,2.77328014374,,,,,0.11,-1.24,0.57,0.292505025864
0.0986332371831,-0.0163669902831,-0.996101498604,2.77688217163,,,,,0.14,-1.22,0.64,0.293918132782
0.0972175002098,-0.0177796464413,-0.997516989708,2.78047513962,,,,,0.81,-8657209.46,-14372176.9,0.294512987137
0.0971682146192,-0.0185963027179,-0.99753677845,2.78414916992,,,,,0.2,-1.1,0.9,0.295117139816
0.0981801152229,-0.0178993027657,-0.99788236618,2.7877831459,,,,,0.2,-1.09,0.93,0.295674085617
0.097280561924,-0.0183237995952,-0.996572494507,2.82474803925,,,,,0.2,-1.1,0.98,0.297034978867
0.0957867503166,-0.0194733608514,-0.99506688118,2.82733011246,,,,,0.21,-1.11,1.0,0.29762506485
0.0953343063593,-0.0201433040202,-0.99625825882,2.83093214035,,,,,0.22,-1.1,0.97,0.29817199707
0.0965879335999,-0.0189696643502,-0.997361540794,2.83456015587,,,,,0.22,-1.09,0.95,0.298716068268
0.0984446629882,-0.0177542995661,-0.996453285217,2.83815407753,,,,,0.25,-1.05,0.93,0.299265146255
0.100091539323,-0.0179156642407,-0.996057629585,2.87258815765,,,,,0.27,-1.02,0.93,0.300654172897
0.0995553210378,-0.0183682423085,-0.997517585754,2.87625312805,,,,,0.37,-0.95,0.91,0.301244020462
0.098089016974,-0.0188372731209,-0.996419668198,2.87985420227,,,,,0.39,-0.93,0.89,0.301770210266
0.0977810248733,-0.0194140765816,-0.994945764542,2.88348817825,,,,,0.39,-0.88,0.85,0.302314043045
0.0972821116447,-0.0196623150259,-0.997404098511,2.91490602493,,,,,0.37,-0.87,0.84,0.302901029587
0.0985329449177,-0.0195599086583,-0.999291777611,2.91853308678,,,,,0.33,-0.88,0.84,0.304268121719
0.099862664938,-0.019798303023,-0.999130725861,2.92212319374,,,,,0.34,-0.93,-8656782.34,0.30486702919
0.0989925116301,-0.0193366911262,-0.998324394226,2.92578411102,,,,,0.43,-1.1,0.76,0.305461168289
0.0978691130877,-0.0175540950149,-0.997216463089,2.9293680191,,,,,0.45,-1.15,0.71,0.306006193161
0.0983814969659,-0.0173025336117,-0.995672345161,2.96315312386,,,,,0.47,-1.24,0.6,0.307370185852
0.0995178073645,-0.018073156476,-0.995120882988,2.96676301956,,,,,0.42,-1.3,0.48,0.307960987091
0.0991387665272,-0.0175388846546,-0.996407866478,2.97034811974,,,,,0.38,-1.31,0.45,0.308507204056
0.0982483625412,-0.017527429387,-0.998110294342,2.97398710251,,,,,0.31,-1.31,0.43,0.309055089951
0.0980860888958,-0.0188603606075,-0.997828722,2.97757720947,,,,,20971520.0,7214202.87,-14596177.92,0.309607028961
0.0978575125337,-0.0195171739906,-0.997872948647,3.0130341053,,,,,0.25,-1.25,0.46,0.310971021652
0.0984056815505,-0.0193410459906,-0.998862028122,3.01663804054,,,,,0.2,-1.15,0.56,0.311561107635
0.0998800247908,-0.0187719240785,-0.998569369316,3.02022910118,,,,,0.11,-1.07,0.69,0.312106132507
0.0990232229233,-0.0190411340445,-0.997119188309,3.02392601967,,,,,0.07,-1.05,0.77,0.312653064728
0.0962447747588,-0.0199547745287,-0.995965361595,3.02752518654,,,,,0.05,-1.04,0.84,0.313242197037
0.0967867299914,-0.0177592281252,-0.997263550758,3.06245112419,,,,,0.06,-1.06,0.96,0.314604997635
0.0994548350573,-0.0142484437674,-0.999463319778,3.06611514091,,,,,0.14,-1.09,1.01,0.315195083618
0.100112453103,-0.01439942047,-0.998923301697,3.06971001625,,,,,0.16,-1.11,0.99,0.315718173981
0.0995854213834,-0.0163136590272,-0.995688676834,3.07331609726,,,,,0.16,-1.13,0.96,0.316265106201
0.100410744548,-0.0173798557371,-0.993916749954,3.1049849987,,,,,0.16,-1.17,0.88,0.316836118698
0.101331740618,-0.0184025038034,-0.993301033974,3.10858201981,,,,,0.15,-1.2,0.58,0.3174700737
0.101588316262,-0.0189364310354,-0.992603540421,3.112169981,,,,,0.16,-1.14,0.62,0.318061113358
0.101614624262,-0.0188195165247,-0.993035197258,3.11581420898,,,,,0.14,-1.11,0.64,0.318588018417
0.100680582225,-0.0194394346327,-0.993964791298,3.11941003799,,,,,0.12,-1.03,0.71,0.319135189056
0.100505568087,-0.0205715298653,-0.995037555695,3.1533010006,,,,,0.13,-0.99,0.76,0.319680213928
0.099331304431,-0.0201122630388,-0.995395183563,3.15689611435,,,,,0.17,-0.9,0.86,0.321043014526
0.09779278934,-0.0198499690741,-0.99745619297,3.16046714783,,,,,0.24,-0.81,0.93,0.321631193161
0.098902054131,-0.0189548600465,-0.999429225922,3.16444706917,,,,,0.47,-0.8,0.81,0.322177171707
0.0992344394326,-0.0169034283608,-0.998275518417,3.16802000999,,,,,0.45,-0.79,0.72,0.322721004486
0.0976848974824,-0.0172524750233,-0.997667908669,3.20325613022,,,,,0.43,-0.79,0.68,0.323311090469
0.096146941185,-0.0192108284682,-0.997990846634,3.20684909821,,,,,0.39,-0.81,0.65,0.324676990509
0.0965252965689,-0.0196703579277,-0.996430039406,3.21044111252,,,,,0.4,-0.82,0.64,0.325267076492
0.0990673750639,-0.0172741152346,-0.995051264763,3.21407699585,,,,,0.16,-0.83,0.57,0.325839042664
0.100879527628,-0.0155238639563,-0.995133161545,3.21766614914,,,,,0.11,-0.84,0.56,0.32638502121
0.0988615304232,-0.0170555170625,-0.995368003845,3.25123000145,,,,,0.08,-0.84,0.56,0.326929092407
0.096144169569,-0.0170521978289,-0.995938181877,3.25365900993,,,,,0.05,-0.84,0.57,0.328293085098
0.0968279391527,-0.0162893477827,-0.995999455452,3.25604605675,,,,,0.04,-0.86,0.59,0.328884124756
0.0964428856969,-0.0177524853498,-0.994407176971,3.25843715668,,,,,0.03,-0.9,0.62,0.329428195953
0.095408923924,-0.0183111112565,-0.9931422472,3.29447507858,,,,,0.03,-0.92,0.64,0.329975128174
0.0961492359638,-0.018758058548,-0.992760062218,3.29687213898,,,,,0.01,-0.94,0.65,0.33052110672
0.0968380123377,-0.0195444133133,-0.993269443512,3.29927515984,,,,,0.0,-0.98,0.7,0.331895112991
0.0976355448365,-0.0185415651649,-0.995002746582,3.30167508125,,,,,0.03,-1.03,0.79,0.332493066788
0.0987610965967,-0.0173570029438,-0.996573805809,3.30410814285,,,,,0.04,-1.02,0.83,0.333084106445
0.0990119874477,-0.0183485019952,-0.996043205261,3.34330320358,,,,,0.05,-0.97,0.87,0.33363699913
0.0979488864541,-0.0184779204428,-0.996841907501,3.34689903259,,,,,0.04,-0.94,0.89,0.334180116653
0.0972407907248,-0.0176631100476,-0.998403429985,3.35049700737,,,,,0.04,-0.91,0.89,0.335569143295
0.0971380472183,-0.0167007222772,-0.997199177742,3.35412216187,,,,,0.08,-0.92,0.87,0.336158037186
0.0979861170053,-0.0155551899225,-0.995542287827,3.35771512985,,,,,0.17,-0.93,0.86,0.336705207825
0.099786862731,-0.0159614104778,-0.995287418365,3.39355301857,,,,,0.22,-0.92,0.85,0.337254047394
0.0982729122043,-0.0180066917092,-0.99549472332,3.39714312553,,,,,0.27,-0.92,0.83,0.337804079056
0.0957677438855,-0.0196350179613,-0.996471405029,3.40071415901,,,,,0.31,-0.87,0.75,0.339160203934
0.0971222668886,-0.0186058972031,-0.997039198875,3.40434718132,,,,,0.25,-0.83,0.72,0.339749097824
0.0996138304472,-0.0172471385449,-0.996911644936,3.40809702873,,,,,0.23,-0.8,0.72,0.34029507637
0.100470237434,-0.0166273135692,-0.997171163559,3.44256806374,,,,,0.23,-0.76,0.73,0.340839147568
0.0999396145344,-0.0158281605691,-0.997567534447,3.44618916512,,,,,0.3,-0.69,0.75,0.341386079788
0.0996515527368,-0.0158158745617,-0.997938632965,3.4497730732,,,,,0.39,-0.65,0.76,0.342742204666
0.100151315331,-0.0165523570031,-0.997820973396,3.45339512825,,,,,0.4,-0.65,0.79,0.343376159668
0.0995775237679,-0.0172638390213,-0.997572302818,3.48496317863,,,,,0.38,-0.65,0.81,0.343923091888
0.0993074774742,-0.0171696376055,-0.998361229897,3.48855400085,,,,,0.34,-0.65,0.86,0.344470024109
0.100619494915,-0.0159440618008,-0.99779689312,3.49214220047,,,,,0.33,-0.66,0.87,0.345016002655
0.101640887558,-0.0157434251159,-0.99640583992,3.49579000473,,,,,0.34,-0.73,0.88,0.346398115158
0.100858353078,-0.0165289137512,-0.995013952255,3.49937319756,,,,,0.29,-0.9,0.87,0.346994161606
0.0993221625686,-0.0169203039259,-0.992753267288,3.53339314461,,,,,0.27,-0.95,0.87,0.347540140152
0.0988381579518,-0.0179755110294,-0.991740107536,3.53698515892,,,,,0.25,-0.98,0.86,0.348084211349
0.0990391299129,-0.0191976223141,-0.992811799049,3.54054403305,,,,,0.26,-0.99,0.82,0.348628044128
0.0991438552737,-0.0183035302907,-0.993090033531,3.54419612885,,,,,0.28,-0.95,0.77,0.349987030029
0.0989968776703,-0.0180483050644,-0.992573618889,3.54777908325,,,,,0.27,-0.89,0.76,0.350574016571
0.100297406316,-0.0180803500116,-0.994933128357,3.58327317238,,,,,0.26,-0.87,0.76,0.351145029068
0.101484946907,-0.0175214465708,-0.998203516006,3.58686113358,,,,,0.25,-0.85,0.79,0.351691007614
0.100353181362,-0.0165830869228,-0.998117566109,3.59044218063,,,,,0.25,-0.85,0.8,0.352240085602
0.0985759496689,-0.0157090593129,-0.996633768082,3.5940721035,,,,,0.26,-0.85,0.82,0.353644132614
0.0962352976203,-0.0169793665409,-0.996140003204,3.5976600647,,,,,0.22,-0.79,0.88,0.35423207283
0.0954859703779,-0.019039971754,-0.997010469437,3.63247513771,,,,,0.14,-0.73,0.98,0.354781150818
0.0976632907987,-0.0198149029166,-0.997559666634,3.63612103462,,,,,0.1,-0.74,1.02,0.355324029922
0.0993761494756,-0.0189791731536,-0.997162222862,3.63970899582,,,,,0.09,-0.79,1.06,0.355875015259
0.100336365402,-0.0185135360807,-0.997665286064,3.64333105087,,,,,0.12,-0.82,1.05,0.357233047485
0.0996734797955,-0.0189042333513,-0.998347043991,3.67470121384,,,,,0.24,-0.82,0.97,0.357824087143
0.0982473492622,-0.0186363589019,-0.99607026577,3.67829012871,,,,,0.27,-0.8,0.94,0.358372211456
0.0987619459629,-0.0168377924711,-0.994908571243,3.68185305595,,,,,0.29,-0.76,0.85,0.358918190002
0.0992174595594,-0.0161566678435,-0.996558845043,3.68548798561,,,,,0.29,-0.77,0.78,0.359462976456
0.0994664207101,-0.0175745170563,-0.997198700905,3.68906903267,,,,,0.26,-0.82,0.64,0.360827207565
0.09952621907,-0.0180868860334,-0.997506976128,3.72319412231,,,,,0.22,-0.85,0.55,0.36141705513
0.100115269423,-0.0173502396792,-0.99693441391,3.72678518295,,,,,0.17,-0.86,0.52,0.361960172653
0.100895099342,-0.0175453666598,-0.996027588844,3.7303750515,,,,,0.14,-0.87,0.52,0.362507104874
0.100384935737,-0.0174633488059,-0.995439052582,3.73405599594,,,,,0.08,-0.92,0.55,0.363092184067
0.100551739335,-0.0170967560261,-0.993949174881,3.73764204979,,,,,0.06,-0.96,0.56,0.364458084106
0.100401267409,-0.0165628325194,-0.992974996567,3.7732629776,,,,,0.02,-1.09,0.67,0.365046977997
0.0990028530359,-0.016796445474,-0.994843959808,3.77685618401,,,,,0.02,-1.11,0.72,0.3656001091
0.0984313637018,-0.0185364726931,-0.996560811996,3.78044319153,,,,,0.03,-1.1,0.81,0.366147041321
0.0981057211757,-0.0187187250704,-0.995578408241,3.78407406807,,,,,0.05,-1.08,0.84,0.366692066193
0.0980524048209,-0.0180366616696,-0.995233893394,3.78765916824,,,,,0.08,-1.04,0.85,0.36808013916
0.0979002937675,-0.0192258637398,-0.995408296585,3.82138800621,,,,,0.11,-1.02,0.82,0.368674039841
0.0971782878041,-0.0201228726655,-0.995724320412,3.82503700256,,,,,0.12,-0.97,0.79,0.369219064713
0.0976634770632,-0.0193657539785,-0.997731089592,3.8286190033,,,,,0.12,-0.93,0.79,0.369767189026
0.0982551723719,-0.0186063144356,-0.998537182808,3.8322122097,,,,,0.16,-0.85,0.78,0.370311021805
0.0991354137659,-0.0187260638922,-0.996446371078,3.86386013031,,,,,0.19,-0.83,0.78,0.371676206589
0.10018414259,-0.0200981870294,-0.994902253151,3.86745715141,,,,,0.28,-0.86,0.78,0.372267007828
0.0997612699866,-0.0213122870773,-0.994581818581,3.87108516693,,,,,0.31,-0.88,0.79,0.372873067856
0.0993301719427,-0.020813068375,-0.993946671486,3.87474799156,,,,,0.35,-0.94,0.82,0.373437166214
0.0990468785167,-0.0202623903751,-0.993454694748,3.87835121155,,,,,0.38,-0.97,0.84,0.373986005783
0.0979013442993,-0.0205529406667,-0.994971990585,3.91326713562,,,,,0.41,-1.01,0.89,0.375355005264
0.0975740253925,-0.019578775391,-0.997527360916,3.91686916351,,,,,0.42,-1.04,0.93,0.375941991806
0.0998347699642,-0.0182770658284,-0.997928619385,3.92043805122,,,,,0.38,-1.05,0.95,0.376488208771
0.100857749581,-0.0186096802354,-0.996541261673,3.92406320572,,,,,0.35,-1.03,0.95,0.377034187317
0.100089222193,-0.0181507300586,-0.996456027031,3.92784619331,,,,,0.32,-1.02,0.93,0.377579212189
0.101042032242,-0.015563396737,-0.997577428818,3.96322011948,,,,,0.28,-0.96,0.89,0.378946065903
0.101447045803,-0.0157515276223,-0.997529029846,3.96679902077,,,,,0.27,-0.87,0.83,0.379534006119
0.1005782336,-0.0180705469102,-0.996430039406,3.97040200233,,,,,0.28,-0.83,0.83,0.380081176758
0.100055545568,-0.0174420084804,-0.996685624123,3.97403907776,,,,,0.28,-0.79,0.85,0.380627155304
0.0997057780623,-0.0171604305506,-0.996935844421,3.97763419151,,,,,0.27,-0.73,0.86,0.381174087524
0.0983477830887,-0.019019799307,-0.996775150299,4.01129412651,,,,,0.27,-0.71,0.85,0.382537126541
0.0971134603024,-0.0197350233793,-0.996452331543,4.01494312286,,,,,0.25,-0.72,0.8,0.383170127869
0.0970235913992,-0.0181886497885,-0.996202230453,4.01854515076,,,,,0.23,-0.74,0.78,0.383719205856
0.0978298783302,-0.0176197383553,-0.997536540031,4.02213716507,,,,,0.22,-0.76,0.78,0.384272098541
0.0969388112426,-0.019020460546,-0.997740149498,4.05359721184,,,,,0.21,-0.77,0.79,0.384817123413
0.0954304337502,-0.0190227944404,-0.996936321259,4.05718708038,,,,,0.2,-0.82,0.8,0.386211156845
0.0972867682576,-0.0176491625607,-0.997510433197,4.0607790947,,,,,0.26,-0.87,0.84,0.386803150177
0.101205214858,-0.0160589292645,-0.998928070068,4.06441712379,,,,,0.29,-0.87,0.85,0.387351036072
0.101286679506,-0.0167226325721,-1.00064659119,4.06798315048,,,,,0.32,-0.87,0.87,0.387897014618
0.0980015844107,-0.0184403900057,-0.999494433403,4.10331010818,,,,,0.34,-0.84,0.9,0.388442993164
0.0972435474396,-0.0177974831313,-0.996185183525,4.10690402985,,,,,0.34,-0.82,0.92,0.389804124832
0.0983253493905,-0.0168444719166,-0.993671774864,4.11049699783,,,,,0.27,-0.75,0.98,0.39039516449
0.0998112559319,-0.0171324890107,-0.992534041405,4.11412620544,,,,,0.25,-0.73,1.0,0.390940189362
0.0998036041856,-0.0178167019039,-0.992894530296,4.11771202087,,,,,0.19,-0.71,1.05,0.391485214233
0.0985801294446,-0.0184056870639,-0.99463737011,4.15317702293,,,,,0.16,-0.7,1.07,0.392029047012
0.0995117202401,-0.0186831727624,-0.996151566505,4.15676903725,,,,,0.1,-0.7,1.05,0.393442153931
0.0991151183844,-0.0193551536649,-0.996983408928,4.16035604477,,,,,0.05,-0.72,1.0,0.394035100937
0.0975620374084,-0.0197690650821,-0.996067404747,4.16399121284,,,,,0.04,-0.75,0.96,0.394581079483
0.0982380881906,-0.0191921535879,-0.995124340057,4.16757321358,,,,,0.06,-0.75,0.95,0.395126104355
0.0989949181676,-0.0193694029003,-0.995893120766,4.20113706589,,,,,0.15,-0.76,0.95,0.395673036575
0.0990480929613,-0.0198446903378,-0.996028661728,4.20476317406,,,,,0.22,-0.76,0.94,0.397036075592
0.098963290453,-0.0194391999394,-0.994211196899,4.20834302902,,,,,0.38,-0.82,0.86,0.39762711525
0.0982948690653,-0.0185653213412,-0.992977976799,4.21193099022,,,,,0.42,-0.85,0.83,0.39817404747
0.0983148515224,-0.0194449536502,-0.993684649467,4.24393010139,,,,,0.46,-0.92,0.84,0.398719072342
0.0986432433128,-0.0215648077428,-0.994931340218,4.24748706818,,,,,0.47,-0.95,0.86,0.399265050888
0.0990722477436,-0.0209161955863,-0.995834589005,4.25107312202,,,,,0.44,-1.0,0.94,0.40062713623
0.100078344345,-0.0200496204197,-0.995650649071,4.25469303131,,,,,0.36,-1.07,1.0,0.401214122772
0.0994702279568,-0.021100519225,-0.995542764664,4.25827908516,,,,,0.21,-1.13,1.03,0.401760101318
0.0977056920528,-0.021597199142,-0.996856451035,4.29345798492,,,,,0.12,-1.14,1.03,0.402304172516
0.0973376855254,-0.0204467717558,-0.997573137283,4.29703497887,,,,,-0.04,-1.09,1.04,0.402898073196
0.0974114015698,-0.0199120026082,-0.997638225555,4.30062103271,,,,,-0.12,-1.05,1.04,0.404291152954
0.0977264046669,-0.0206065475941,-0.99801158905,4.30423808098,,,,,-0.29,-0.91,1.02,0.404880046844
0.0979814231396,-0.0207679960877,-0.998461604118,4.30781507492,,,,,-0.31,-0.89,1.01,0.405428171158
0.0979492366314,-0.0196591150016,-0.998063087463,4.34308314323,,,,,-0.3,-0.86,0.98,0.405974149704
0.098886474967,-0.0182447191328,-0.997731328011,4.34667015076,,,,,-0.25,-0.84,0.96,0.406522035599
0.100194014609,-0.0180409196764,-0.995640873909,4.35026407242,,,,,-0.1,-0.78,0.91,0.40788602829
0.100829869509,-0.0175649803132,-0.992350816727,4.35389304161,,,,,0.05,-0.71,0.87,0.408472061157
0.0998855382204,-0.0168705228716,-0.992148637772,4.35747909546,,,,,0.16,-0.67,0.84,0.409020185471
0.0982269868255,-0.0172907374799,-0.992828011513,4.39104413986,,,,,0.18,-0.64,0.81,0.40956401825
0.0978584960103,-0.0179008040577,-0.992960572243,4.39468598366,,,,,0.21,-0.57,0.73,0.410111188889
0.0994898602366,-0.0187500789762,-0.994307756424,4.39828300476,,,,,0.23,-0.53,0.68,0.411487102509
0.100502498448,-0.019039766863,-0.994726538658,4.40186905861,,,,,0.26,-0.42,0.61,0.412083148956
0.0995851159096,-0.0177439730614,-0.993625283241,4.43360304832,,,,,0.25,-0.41,0.63,0.412634134293
0.100048400462,-0.0163648258895,-0.992440462112,4.43719816208,,,,,0.2,-0.45,0.68,0.413228034973
0.0996321737766,-0.0172333102673,-0.992772102356,4.44078803062,,,,,0.16,-0.5,0.71,0.413779020309
0.0995354652405,-0.0180547125638,-0.994784355164,4.44449114799,,,,,0.13,-0.64,0.77,0.415141105652
0.100462429225,-0.0171270538121,-0.995975255966,4.4480919838,,,,,0.16,-0.79,0.85,0.415729999542
0.100770443678,-0.0174892581999,-0.995000600815,4.48336100578,,,,,0.22,-0.91,0.97,0.416277170181
0.101024985313,-0.0178290102631,-0.994275927544,4.48694109917,,,,,0.25,-0.94,1.03,0.416823148727
0.100598156452,-0.0182546693832,-0.995862841606,4.49053120613,,,,,0.27,-0.97,1.07,0.417368173599
0.100312650204,-0.0192780084908,-0.997406363487,4.49416518211,,,,,0.3,-0.97,1.1,0.418734073639
0.100333467126,-0.020108025521,-0.997156023979,4.4977850914,,,,,0.31,-0.92,1.06,0.41934299469
0.0998449474573,-0.0201085489243,-0.995918393135,4.53299808502,,,,,0.3,-0.88,1.04,0.419927120209
0.0996541306376,-0.019014114514,-0.995041012764,4.53660702705,,,,,0.29,-0.84,1.02,0.420474052429
0.100538536906,-0.0176415722817,-0.993286728859,4.54044103622,,,,,0.24,-0.76,0.97,0.421020030975
0.100708335638,-0.0168791990727,-0.991488814354,4.54412698746,,,,,0.19,-0.75,0.9,0.422394037247
0.100874230266,-0.0167539417744,-0.991762280464,4.57617020607,,,,,0.12,-0.8,0.84,0.4230260849
0.101054653525,-0.0184278078377,-0.992784976959,4.57977700233,,,,,0.06,-0.89,0.79,0.42357301712
0.0994821339846,-0.0200148690492,-0.993331551552,4.58343410492,,,,,0.05,-0.92,0.77,0.424118995667
0.0986544787884,-0.0190982595086,-0.994341015816,4.58703112602,,,,,0.05,-0.95,0.75,0.424666166306
0.0983297750354,-0.0189311373979,-0.995481491089,4.59061908722,,,,,0.13,-0.98,0.72,0.426031112671
0.0988564789295,-0.0189855527133,-0.99515748024,4.62367320061,,,,,0.2,-0.97,0.74,0.426620006561
0.100262753665,-0.0177358686924,-0.994652748108,4.6272611618,,,,,0.23,-0.95,0.76,0.4271671772
0.100304357708,-0.016778210178,-0.994704842567,4.63085198402,,,,,0.26,-0.93,0.79,0.427712202072
0.0994323939085,-0.015978878364,-0.994221925735,4.63449120522,,,,,0.29,-0.9,0.82,0.428256034851
0.0988881513476,-0.0154661964625,-0.99401974678,4.6380841732,,,,,0.3,-0.9,0.83,0.429616212845
0.0996888801455,-0.0174824688584,-0.995227456093,4.67335700989,,,,,0.3,-0.93,0.82,0.430204153061
0.100619070232,-0.0213612671942,-0.997394442558,4.67695307732,,,,,0.29,-0.94,0.83,0.430755138397
0.102516233921,-0.0236232299358,-0.998660326004,4.68054819107,,,,,0.27,-0.96,0.84,0.431303024292
0.103995397687,-0.025336464867,-0.997137308121,4.68419218063,,,,,0.26,-0.98,0.86,0.431849002838
0.102004520595,-0.0233222190291,-0.99455332756,4.68778705597,,,,,0.26,-1.03,0.86,0.433257102966
0.100296676159,-0.0182017255574,-0.996271967888,4.72276115417,,,,,0.27,-1.08,0.83,0.433845996857
0.100927606225,-0.0174779128283,-0.998109459877,4.72640800476,,,,,0.27,-1.08,0.8,0.434393167496
0.10101159662,-0.0197433773428,-0.995131015778,4.72999620438,,,,,0.26,-1.06,0.8,0.434938192368
0.10017747432,-0.0216987933964,-0.995940804482,4.73363518715,,,,,0.24,-1.0,0.83,0.435482978821
0.0979089140892,-0.0191428828984,-0.998578429222,4.76668000221,,,,,0.23,-0.97,0.85,0.436873197556
0.0957918912172,-0.0175686609,-0.996713638306,4.77027511597,,,,,0.21,-0.93,0.87,0.437465190887
0.0976000279188,-0.0214600637555,-0.996988654137,4.7739341259,,,,,0.21,-0.92,0.86,0.438014984131
0.100694783032,-0.0259078573436,-0.999207019806,4.77752900124,,,,,0.19,-0.88,0.85,0.438559055328
0.10360956192,-0.0265590753406,-0.998091936111,4.78113412857,,,,,0.18,-0.85,0.83,0.439105033875
0.100005403161,-0.0239118915051,-0.996847867966,4.81331014633,,,,,0.22,-0.79,0.8,0.440467119217
0.095747590065,-0.0247823577374,-0.998373746872,4.81690406799,,,,,0.3,-0.74,0.75,0.441056013107
0.0969761162996,-0.0249650571495,-0.999825119972,4.82049608231,,,,,0.39,-0.69,0.69,0.44159913063
0.0956460013986,-0.0194487366825,-1.00057184696,4.82413721085,,,,,0.41,-0.67,0.67,0.442146062851
0.0932428389788,-0.014791155234,-1.00169587135,4.82773709297,,,,,0.43,-0.64,0.65,0.442690134048
0.0984162911773,-0.0137068796903,-1.00277602673,4.86320400238,,,,,0.42,-0.63,0.65,0.444180011749
0.106867067516,-0.0167439561337,-0.998603343964,4.86679506302,,,,,0.35,-0.67,0.72,0.444770097733
0.10760332644,-0.0225751306862,-0.998748660088,4.8703930378,,,,,0.32,-0.69,0.74,0.44531416893
0.105391234159,-0.0256450157613,-0.997096776962,4.87402009964,,,,,0.27,-0.76,0.78,0.445863008499
0.101321540773,-0.0269617084414,-0.994899392128,4.87761211395,,,,,0.24,-0.8,0.79,0.446408033371
0.103019021451,-0.021368490532,-0.997224569321,4.91292405128,,,,,0.21,-0.89,0.81,0.447772026062
0.107183933258,-0.0135677140206,-1.00136864185,4.91651916504,,,,,0.2,-0.97,0.86,0.44836306572
0.103771209717,-0.017004257068,-1.00378465652,4.92011904716,,,,,0.19,-1.0,0.92,0.448909044266
0.0954524725676,-0.0222793985158,-1.00172150135,4.92374014854,,,,,0.18,-0.99,0.94,0.449459075928
0.0976318269968,-0.0220084171742,-1.00003159046,4.95622611046,,,,,0.17,-0.95,0.97,0.4500041008
0.114534154534,-0.0218481272459,-1.00012099743,4.95982909203,,,,,0.17,-0.93,0.98,0.451368093491
0.120229490101,-0.0206324178725,-0.992533802986,4.96347904205,,,,,0.17,-0.86,0.96,0.451960086823
0.103955477476,-0.0228917878121,-0.993262171745,4.96708011627,,,,,0.15,-0.84,0.95,0.452522993088
0.0870030373335,-0.0240318272263,-0.996733188629,4.97067308426,,,,,0.07,-0.79,0.96,0.453134059906
0.0907513871789,-0.0211748052388,-1.00053906441,5.00296711922,,,,,0.04,-0.77,0.96,0.453685998917
0.105522200465,-0.0165457744151,-1.00476193428,5.00656819344,,,,,0.02,-0.73,0.95,0.455089092255
0.106935456395,-0.015054596588,-1.00065135956,5.01015806198,,,,,0.08,-0.72,0.9,0.455677986145
0.0994100421667,-0.0160442888737,-0.998225927353,5.01379609108,,,,,0.17,-0.74,0.85,0.456223011017
0.103191316128,-0.0190894063562,-1.00152361393,5.01738500595,,,,,0.19,-0.77,0.83,0.456768989563
0.113202929497,-0.0190921667963,-1.00031328201,5.05304217339,,,,,0.16,-0.82,0.81,0.457314014435
0.103917762637,-0.0175545122474,-0.99715077877,5.05664110184,,,,,0.13,-0.85,0.8,0.458679199219
0.0908591523767,-0.0155706852674,-0.996322989464,5.0602312088,,,,,0.07,-0.9,0.75,0.459274053574
0.0966654196382,-0.016703190282,-1.00478923321,5.06386208534,,,,,0.06,-0.91,0.73,0.45982003212
0.103193953633,-0.0194069426507,-1.00292408466,5.0674571991,,,,,0.03,-0.94,0.69,0.460363149643
0.0962935686111,-0.0192376244813,-0.992576479912,5.10250520706,,,,,0.0,-0.94,0.67,0.460910081863
0.0931055992842,-0.0226306151599,-0.997516512871,5.10616898537,,,,,-0.1,-0.92,0.65,0.462277173996
0.105278760195,-0.025831611827,-1.00614595413,5.10976219177,,,,,-0.19,-0.87,0.67,0.462913036346
0.10923602432,-0.0229272861034,-0.999069213867,5.11338806152,,,,,-0.2,-0.82,0.73,0.463464021683
0.0998443216085,-0.0163365323097,-0.989384293556,5.14661812782,,,,,-0.17,-0.8,0.77,0.464011192322
0.0999145209789,-0.0161303263158,-0.999907970428,5.15022206306,,,,,-0.12,-0.8,0.8,0.464555978775
0.105930358171,-0.0207132697105,-1.00780916214,5.15394020081,,,,,0.0,-0.8,0.84,0.465918064117
0.100147753954,-0.0193328950554,-0.995460748672,5.15750217438,,,,,0.15,-0.85,0.85,0.466506004333
0.0922057554126,-0.0129139143974,-0.993334889412,5.16109704971,,,,,0.19,-0.86,0.85,0.467054128647
0.0987681224942,-0.0142868533731,-1.00820100307,5.19308209419,,,,,0.21,-0.88,0.86,0.467599153519
0.111104950309,-0.0247364323586,-1.00302922726,5.19667506218,,,,,0.25,-0.9,0.87,0.468151092529
0.107715107501,-0.0294601153582,-0.988870501518,5.20026612282,,,,,0.26,-0.91,0.86,0.469516038895
0.0969524681568,-0.0248807501048,-0.996577262878,5.20417118073,,,,,0.21,-0.89,0.82,0.470105171204
0.0989953652024,-0.0220701228827,-1.00732588768,5.20776820183,,,,,0.16,-0.87,0.81,0.470627069473
0.105770342052,-0.0232557114214,-0.996796131134,5.25287413597,,,,,0.04,-0.82,0.81,0.471194982529
0.100044079125,-0.0219199601561,-0.98916721344,5.25650501251,,,,,0.0,-0.8,0.82,0.471752166748
0.0918897390366,-0.0174583736807,-1.00523924828,5.2600941658,,,,,-0.06,-0.77,0.85,0.494276046753
0.0944103226066,-0.0177023205906,-1.01323699951,5.27376198769,,,,,-0.04,-0.81,0.89,0.494866132736
0.102978184819,-0.0229899007827,-0.998992323875,5.27734804153,,,,,-0.02,-0.84,0.91,0.495412111282
0.104551240802,-0.0200814474374,-0.993425607681,5.30370211601,,,,,0.0,-0.86,0.93,0.495958089828
0.100258439779,-0.0185151733458,-1.00728988647,5.30731916428,,,,,0.04,-0.89,0.96,0.496504068375
0.103514276445,-0.0223635714501,-0.993556022644,5.31299114227,,,,,0.06,-0.89,0.97,0.497870206833
0.102164506912,-0.0189956258982,-1.00595903397,5.31658816338,,,,,0.14,-0.85,0.97,0.498462200165
0.102146103978,-0.0262157861143,-1.00471198559,5.35304808617,,,,,0.15,-0.84,0.97,0.49901509285
0.102522581816,-0.0313067734241,-0.993521690369,5.35665416718,,,,,0.13,-0.8,0.96,0.499559164047
0.103206820786,-0.0248271357268,-0.996573209763,5.36024904251,,,,,0.11,-0.77,0.95,0.500102996826
0.104881510139,-0.0194514449686,-1.00291633606,5.36387705803,,,,,0.08,-0.72,0.92,0.501465082169
0.103292696178,-0.0240924935788,-0.993948578835,5.36747598648,,,,,0.06,-0.71,0.88,0.5020570755
0.0981422364712,-0.0248034466058,-0.988738059998,5.40315198898,,,,,0.06,-0.75,0.86,0.502602100372
0.0964546203613,-0.0174986105412,-0.99820971489,5.40676403046,,,,,0.06,-0.78,0.85,0.503216981888
0.0975404456258,-0.0167604591697,-1.00244653225,5.41035509109,,,,,0.07,-0.88,0.8,0.503768205643
0.0975762978196,-0.0235899370164,-0.998912215233,5.41399908066,,,,,0.08,-0.93,0.78,0.505156040192
0.0996482595801,-0.0222720187157,-0.994095802307,5.41759514809,,,,,0.12,-1.05,0.75,0.505743980408
0.105681590736,-0.018204992637,-0.997445940971,5.45108699799,,,,,0.12,-1.07,0.75,0.506293058395
0.103727795184,-0.0219720322639,-0.996425390244,5.45473313332,,,,,0.1,-1.09,0.77,0.506837129593
0.0926012098789,-0.0236104670912,-0.99419426918,5.45831108093,,,,,0.09,-1.09,0.77,0.507385015488
0.0924378558993,-0.0190495681018,-0.995308756828,5.4619011879,,,,,0.08,-1.07,0.78,0.508745193481
0.102149516344,-0.0184892248362,-0.996463418007,5.49358201027,,,,,0.07,-1.06,0.82,0.509333133698
0.0989033058286,-0.0216686241329,-0.997382640839,5.49717211723,,,,,0.05,-1.05,0.88,0.541482210159
0.0934707522392,-0.018554078415,-0.997723817825,5.50075316429,,,,,0.03,-1.05,0.91,0.542032003403
0.101961955428,-0.015995265916,-0.99733376503,5.50439310074,,,,,0.0,-1.08,0.94,0.542577981949
0.111691989005,-0.0222154743969,-0.998234152794,5.50798201561,,,,,-0.01,-1.09,0.94,0.543997049332
0.103561386466,-0.0227852407843,-1.00190663338,5.54343008995,,,,,0.03,-1.1,0.89,0.544586181641
0.0934187099338,-0.0131341386586,-1.00176405907,5.54702615738,,,,,0.07,-1.1,0.87,0.545131206512
0.0992241352797,-0.0138031821698,-0.998439192772,5.55061817169,,,,,0.15,-1.09,0.86,0.545678138733
0.104656390846,-0.0250534359366,-1.00100338459,5.55425405502,,,,,0.18,-1.08,0.86,0.546223163605
0.100067272782,-0.02244512178,-1.00109517574,5.55784201622,,,,,0.24,-1.05,0.88,0.547586202621
0.101313240826,-0.0134153608233,-0.994849205017,5.59303998947,,,,,0.28,-0.97,0.89,0.54817700386
0.109598487616,-0.0226002875715,-0.993574857712,5.59663701057,,,,,0.29,-0.87,0.9,0.548722028732
0.112219676375,-0.0322802513838,-1.00167179108,5.60022306442,,,,,0.28,-0.82,0.92,0.549277067184
0.103468991816,-0.0240045655519,-1.00124514103,5.60385704041,,,,,0.24,-0.73,0.96,0.549823999405
0.0978588983417,-0.0153349172324,-0.994815707207,5.63604617119,,,,,0.21,-0.68,0.98,0.551186084747
0.103897541761,-0.0216113012284,-0.994894504547,5.63964605331,,,,,0.1,-0.54,1.0,0.551778078079
0.107890456915,-0.0242286343127,-1.00745522976,5.64329314232,,,,,0.07,-0.49,0.99,0.552322149277
0.10235978663,-0.0157395452261,-1.00544452667,5.6468911171,,,,,0.04,-0.41,1.0,0.552901029587
0.0980521067977,-0.0154742542654,-0.992724955082,5.65048217773,,,,,0.03,-0.39,1.01,0.5534491539
0.0997468829155,-0.0246528740972,-0.997983634472,5.68286204338,,,,,0.04,-0.39,1.03,0.554813146591
0.103889040649,-0.0276920553297,-1.00612580776,5.68645906448,,,,,0.04,-0.42,1.01,0.555402040482
0.103512533009,-0.0218339879066,-0.997464299202,5.6900510788,,,,,0.02,-0.48,0.98,0.555946111679
0.0969412848353,-0.019214482978,-0.993260025978,5.69367313385,,,,,0.01,-0.54,0.96,0.5564930439
0.0965881720185,-0.0212983060628,-1.00129699707,5.69727110863,,,,,0.01,-0.61,0.95,0.557041168213
0.101254239678,-0.0256352555007,-1.00626266003,5.73323607445,,,,,0.0,-0.79,0.93,0.590327978134
0.104054413736,-0.023886917159,-0.993689060211,5.7368350029,,,,,-0.03,-1.0,0.87,0.590908050537
0.102695539594,-0.0178044494241,-0.992395997047,5.74043512344,,,,,-0.04,-1.03,0.84,0.59145617485
0.102375075221,-0.0180292967707,-1.00706923008,5.74406599998,,,,,-0.05,-1.05,0.81,0.592001199722
0.106234006584,-0.022636661306,-1.009781003,5.74765706062,,,,,-0.03,-1.06,0.76,0.592549085617
0.106689691544,-0.0239044670016,-0.99613404274,5.78269004822,,,,,0.02,-1.07,0.72,0.593966007233
0.104016296566,-0.0169328823686,-0.997095227242,5.78633499146,,,,,0.08,-1.05,0.7,0.594555139542
0.100977323949,-0.0145311262459,-1.00545799732,5.78993320465,,,,,0.12,-0.98,0.71,0.595102071762
0.100125387311,-0.0238264147192,-1.00191640854,5.79357719421,,,,,0.14,-0.92,0.72,0.595649003983
0.104138687253,-0.0271592307836,-0.998797178268,5.82656908035,,,,,0.15,-0.86,0.72,0.596194982529
0.102529831231,-0.0170435141772,-0.997242450714,5.83016705513,,,,,0.17,-0.73,0.7,0.597560167313
0.099180996418,-0.0141452420503,-1.00132632256,5.83381009102,,,,,0.17,-0.73,0.68,0.59815120697
0.101329758763,-0.0231862347573,-0.998308539391,5.83740401268,,,,,0.17,-0.75,0.69,0.598697185516
0.102140463889,-0.0238860044628,-0.993260145187,5.84100103378,,,,,0.18,-0.77,0.72,0.599242210388
0.105182379484,-0.0127264391631,-0.994073987007,5.87303614616,,,,,0.21,-0.79,0.81,0.599794149399
0.107667803764,-0.0140060763806,-0.998146295547,5.87663698196,,,,,0.24,-0.79,0.85,0.60115814209
0.104038618505,-0.0259102527052,-0.998930335045,5.88022613525,,,,,0.31,-0.85,0.91,0.601746082306
0.102122411132,-0.0224607009441,-0.996381044388,5.88385915756,,,,,0.33,-0.88,0.91,0.602296113968
0.106545731425,-0.0120375398546,-0.998423337936,5.88745999336,,,,,0.35,-0.94,0.91,0.602871179581
0.108627088368,-0.0171077456325,-1.00221645832,5.92296814919,,,,,0.35,-0.96,0.91,0.603422164917
0.103360660374,-0.0245543885976,-1.00424814224,5.92656612396,,,,,0.34,-0.94,0.92,0.604787111282
0.0993019416928,-0.0180543009192,-1.00193417072,5.93015813828,,,,,0.31,-0.94,0.89,0.605376005173
0.103861398995,-0.0121363606304,-0.997488498688,5.93379020691,,,,,0.25,-0.96,0.8,0.605924129486
0.102359674871,-0.0208826567978,-0.999143481255,5.93738412857,,,,,0.22,-0.97,0.76,0.606469154358
0.0930377244949,-0.0266998354346,-1.00574731827,5.97251701355,,,,,0.17,-0.97,0.72,0.60701417923
0.0952142253518,-0.0235967244953,-1.00478541851,5.97618103027,,,,,0.16,-0.97,0.71,0.638401985168
0.107486441731,-0.0214940812439,-0.996532559395,5.98001408577,,,,,0.18,-0.99,0.73,0.638996124268
0.110413320363,-0.0233030263335,-0.998382687569,5.98367118835,,,,,0.18,-1.01,0.74,0.639545202255
0.0983596742153,-0.0234952177852,-1.00003862381,6.01493215561,,,,,0.18,-1.05,0.77,0.640089035034
0.0950854867697,-0.0209209304303,-0.995594739914,6.01853203773,,,,,0.18,-1.05,0.79,0.640636205673
0.107545144856,-0.0203363373876,-0.992858290672,6.02213120461,,,,,0.17,-1.02,0.82,0.641998052597
0.107261493802,-0.0193776432425,-0.997325897217,6.0257871151,,,,,0.16,-0.97,0.81,0.642587184906
0.0957789793611,-0.0162302237004,-1.00127136707,6.02937316895,,,,,0.12,-0.95,0.79,0.643182992935
0.0993483439088,-0.0159483868629,-0.996250987053,6.06284499168,,,,,0.1,-0.93,0.79,0.643730163574
0.111443243921,-0.0199849642813,-0.996485352516,6.06646418571,,,,,0.05,-0.9,0.79,0.64429807663
0.110681205988,-0.0203329604119,-1.00044250488,6.07007408142,,,,,0.03,-0.88,0.79,0.645682096481
0.0990521907806,-0.0191783513874,-0.998961567879,6.0737080574,,,,,-0.03,-0.84,0.74,0.646270990372
0.0944377556443,-0.0219538193196,-0.993071198463,6.07729816437,,,,,-0.05,-0.84,0.72,0.646818161011
0.101786747575,-0.020763495937,-0.997612595558,6.11309719086,,,,,-0.05,-0.87,0.68,0.647364139557
0.108657628298,-0.0157118812203,-1.00079512596,6.11669111252,,,,,-0.04,-0.88,0.67,0.647910118103
0.101861916482,-0.017172889784,-0.996225237846,6.12028002739,,,,,0.0,-0.9,0.64,0.649281024933
0.0949585959315,-0.0230442713946,-0.995744347572,6.12392616272,,,,,0.04,-0.92,0.63,0.6498670578
0.106089130044,-0.0210895091295,-1.00426697731,6.12751603127,,,,,0.1,-0.94,0.61,0.650415182114
0.117336794734,-0.0201773736626,-1.00372195244,6.1624121666,,,,,0.13,-0.95,0.6,0.650959014893
0.102936454117,-0.0229803193361,-0.99330997467,6.16606807709,,,,,0.2,-0.94,0.56,0.651504039764
0.088996976614,-0.0225619394332,-0.996268391609,6.16966414452,,,,,0.22,-0.91,0.55,0.652904033661
0.0981548577547,-0.0174238756299,-1.00412559509,6.17330312729,,,,,0.27,-0.85,0.5,0.65349316597
0.110241949558,-0.0207937229425,-1.00149357319,6.20488619804,,,,,0.28,-0.85,0.49,0.654043197632
0.107896834612,-0.0274543892592,-0.993503093719,6.20848202705,,,,,0.29,-0.86,0.47,0.654587030411
0.0996625125408,-0.0224108155817,-0.998205065727,6.21207714081,,,,,0.29,-0.86,0.45,0.683183193207
0.103741466999,-0.0158351343125,-1.00425589085,6.21571803093,,,,,0.28,-0.87,0.41,0.684553146362
0.113051198423,-0.0211524199694,-0.994957327843,6.2193171978,,,,,0.27,-0.89,0.41,0.685142993927
0.105605937541,-0.0207627210766,-0.993983507156,6.25328302383,,,,,0.27,-0.93,0.45,0.685696125031
0.0916659682989,-0.01314775832,-1.00250554085,6.25688004494,,,,,0.27,-0.97,0.48,0.686243057251
0.0966860353947,-0.0136323142797,-1.00427496433,6.26047420502,,,,,0.28,-1.0,0.52,0.686789989471
0.11230379343,-0.0233835037798,-0.996604800224,6.26410198212,,,,,0.29,-1.09,0.57,0.688148021698
0.107833385468,-0.0223678667098,-0.992644906044,6.26770114899,,,,,0.27,-1.19,0.65,0.68873500824
0.0972025766969,-0.0166450496763,-0.997354149818,6.30316615105,,,,,0.25,-1.2,0.67,0.689280986786
0.100375324488,-0.0203036684543,-1.00088644028,6.30676007271,,,,,0.21,-1.17,0.73,0.689829111099
0.108550958335,-0.0254496950656,-0.998488426208,6.31036400795,,,,,0.18,-1.15,0.75,0.690375089645
0.107048876584,-0.0204746201634,-0.997438907623,6.31399917603,,,,,0.11,-1.12,0.76,0.691738128662
0.102938950062,-0.0129187293351,-0.997674942017,6.31759905815,,,,,0.06,-1.1,0.76,0.69232916832
0.100871443748,-0.017275121063,-0.997374534607,6.35245108604,,,,,0.06,-1.05,0.79,0.692909002304
0.0987612530589,-0.025557031855,-1.00004923344,6.35612607002,,,,,0.08,-1.02,0.81,0.693458080292
0.0967802107334,-0.0221250001341,-1.00295495987,6.35972118378,,,,,0.09,-0.97,0.84,0.694005012512
0.100787132978,-0.0175437387079,-1.00040304661,6.36335515976,,,,,0.12,-0.89,0.86,0.695370197296
0.106343656778,-0.0197037030011,-1.00519824028,6.39461016655,,,,,0.19,-0.87,0.85,0.695960044861
0.107570186257,-0.0227602627128,-1.00852131844,6.39821410179,,,,,0.24,-0.88,0.84,0.696506023407
0.107063949108,-0.0232022758573,-0.998895764351,6.4018061161,,,,,0.28,-0.91,0.83,0.69705414772
0.105092227459,-0.0205401144922,-0.993192315102,6.40546011925,,,,,0.34,-0.94,0.81,0.697599172592
0.102339409292,-0.0176931004971,-1.00168693066,6.40905117989,,,,,0.34,-0.94,0.8,0.698964118958
0.103821158409,-0.0184077639133,-1.00434708595,6.44322705269,,,,,0.32,-0.93,0.74,0.731304168701
0.105807155371,-0.0241252053529,-0.993048429489,6.44683599472,,,,,0.33,-0.93,0.7,0.731852054596
0.104582220316,-0.0257382560521,-0.993927001953,6.45042705536,,,,,0.4,-0.95,0.58,0.732398986816
0.105494603515,-0.0170031879097,-1.00404977798,6.45406699181,,,,,0.43,-0.96,0.52,0.73299407959
0.106801867485,-0.0147613901645,-1.0068281889,6.45765519142,,,,,0.48,-0.97,0.45,0.73436498642
0.104248724878,-0.023039964959,-0.997493505478,6.49316906929,,,,,0.54,-0.94,0.39,0.734953165054
0.100599229336,-0.022202482447,-0.996946573257,6.49677109718,,,,,0.58,-0.92,0.38,0.7354991436
0.101145841181,-0.011402150616,-1.00497329235,6.50035715103,,,,,0.61,-0.9,0.36,0.736050128937
0.103956848383,-0.0121027734131,-1.00178515911,6.5039961338,,,,,0.65,-0.87,0.37,0.736599206924
0.102436974645,-0.0233157072216,-0.997174978256,6.50759315491,,,,,0.64,-0.85,0.39,0.73797416687
0.101372025907,-0.0239346195012,-1.00163733959,6.54251813889,,,,,0.54,-0.76,0.56,0.738565206528
0.103613048792,-0.0172172617167,-1.00511479378,6.54621219635,,,,,0.5,-0.73,0.62,0.739111185074
0.10355194658,-0.0222284961492,-1.00276112556,6.54981517792,,,,,0.48,-0.7,0.73,0.739658117294
0.0987090393901,-0.0290512721986,-0.998905658722,6.55296111107,,,,,0.48,-0.7,0.76,0.740203142166
0.0989534333348,-0.0239969510585,-0.999443769455,6.58489203453,,,,,0.49,-0.75,0.82,0.741563081741
0.106283590198,-0.0187934506685,-0.999683260918,6.58849215508,,,,,0.47,-0.83,0.86,0.742151021957
0.106347747147,-0.0189423318952,-0.995017051697,6.59209108353,,,,,0.44,-0.94,0.89,0.742697000504
0.0988826006651,-0.0221425499767,-0.997294425964,6.59523701668,,,,,0.43,-1.0,0.89,0.743280172348
0.103753075004,-0.0202188100666,-1.00118005276,6.59883713722,,,,,0.4,-1.11,0.87,0.743828058243
0.109861508012,-0.017264759168,-1.00072300434,6.63249707222,,,,,0.37,-1.16,0.83,0.745194196701
0.0994936227798,-0.0158648323268,-0.998629570007,6.63492298126,,,,,0.22,-1.22,0.72,0.74579000473
0.0923748239875,-0.0145937856287,-1.00259494781,6.63730812073,,,,,0.16,-1.21,0.69,0.746335029602
0.099575728178,-0.0177916716784,-1.00337028503,6.63973498344,,,,,0.07,-1.16,0.63,0.746883153915
0.10500279814,-0.0224781613797,-1.00254952908,6.6421251297,,,,,0.03,-1.12,0.62,0.747428178787
0.100996345282,-0.0195571128279,-1.00266456604,6.68197417259,,,,,-0.04,-1.03,0.58,0.780306100845
0.0978639572859,-0.0158883016557,-1.0002361536,6.68439912796,,,,,-0.13,-0.95,0.58,0.780897140503
0.100159935653,-0.0222222302109,-0.998564958572,6.68678998947,,,,,-0.2,-0.92,0.63,0.781442165375
0.107190817595,-0.0272298734635,-0.998343586922,6.68918204308,,,,,-0.21,-0.93,0.66,0.781991004944
0.111596547067,-0.017496066168,-1.00004982948,6.69156908989,,,,,-0.2,-0.96,0.73,0.78253698349
0.105623319745,-0.0105014201254,-0.997033596039,6.73121714592,,,,,-0.19,-0.97,0.76,0.783955097198
0.101465173066,-0.0205003414303,-0.998986959457,6.73364806175,,,,,-0.21,-1.0,0.8,0.784545183182
0.106702201068,-0.0238373782486,-1.00301790237,6.73603606224,,,,,-0.21,-1.0,0.81,0.785090208054
0.10629286617,-0.0154724251479,-0.997988820076,6.73844003677,,,,,-0.18,-0.99,0.85,0.785637140274
0.0982350632548,-0.0150323640555,-0.991446733475,6.77439212799,,,,,-0.16,-0.96,0.86,0.786185979843
0.0981863066554,-0.0247579682618,-0.996505498886,6.77679014206,,,,,-0.13,-0.91,0.85,0.78755402565
0.105036713183,-0.0239610206336,-1.00279057026,6.77917909622,,,,,-0.13,-0.87,0.81,0.788143157959
0.110808551311,-0.0156063586473,-0.996965289116,6.78156614304,,,,,-0.11,-0.84,0.79,0.788686990738
0.10632571578,-0.0164915211499,-0.991642594337,6.78399705887,,,,,-0.09,-0.84,0.79,0.78923201561
0.098149381578,-0.0232109557837,-0.999890804291,6.8234372139,,,,,-0.07,-0.83,0.8,0.789783000946
0.0980035513639,-0.0242312792689,-1.00489914417,6.82582902908,,,,,-0.04,-0.83,0.79,0.791146993637
0.105761364102,-0.0202629361302,-0.989297032356,6.82851004601,,,,,-0.05,-0.81,0.75,0.791735172272
0.111424811184,-0.0190660078079,-0.983576059341,6.83171200752,,,,,-0.05,-0.81,0.74,0.792284011841
0.10987456888,-0.0180991534144,-0.997099161148,6.83537101746,,,,,-0.06,-0.8,0.76,0.79287815094
0.107319027185,-0.0198610965163,-1.00443327427,6.87329101562,,,,,-0.06,-0.79,0.77,0.793431997299
0.105057507753,-0.0213801600039,-0.995188593864,6.87688803673,,,,,-0.06,-0.78,0.76,0.794795036316
0.0963305383921,-0.0187486615032,-0.995050907135,6.88049316406,,,,,-0.04,-0.78,0.74,0.795382022858
0.092718668282,-0.015589280054,-1.00707268715,6.88412809372,,,,,-0.02,-0.81,0.75,0.795935153961
0.101981878281,-0.0193247701973,-1.00877225399,6.88772320747,,,,,0.0,-0.84,0.75,0.79647898674
0.107164934278,-0.0215272940695,-0.994709014893,6.92230820656,,,,,0.02,-0.87,0.76,0.797026157379
0.103789538145,-0.0177978184074,-0.993088245392,6.9259622097,,,,,0.08,-0.94,0.77,0.828608036041
0.102143928409,-0.0162814054638,-1.0033724308,6.92955708504,,,,,0.13,-1.05,0.78,0.829199075699
0.105274662375,-0.0227631051093,-1.00407886505,6.93319010735,,,,,0.13,-1.08,0.77,0.829749107361
0.105580061674,-0.024095127359,-0.995342612267,6.96487903595,,,,,0.13,-1.1,0.78,0.830295085907
0.103893861175,-0.0136104095727,-0.996167302132,6.96848607063,,,,,0.11,-1.1,0.77,0.830841064453
0.102801866829,-0.0114721860737,-1.00030732155,6.97207403183,,,,,0.1,-1.09,0.77,0.83220410347
0.103376671672,-0.0252298992127,-1.00213873386,6.9757502079,,,,,0.06,-1.05,0.73,0.832857131958
0.110162228346,-0.0276049580425,-0.998853206635,6.97936320305,,,,,0.03,-1.03,0.72,0.833424091339
0.113895043731,-0.0166275594383,-0.995530724525,7.01326799393,,,,,0.0,-0.99,0.72,0.833970069885
0.105583265424,-0.0166132580489,-0.9968354702,7.01687216759,,,,,-0.01,-0.96,0.74,0.834516048431
0.0951211601496,-0.02594573237,-1.00142192841,7.02046704292,,,,,0.01,-0.92,0.8,0.83588719368
0.0941310673952,-0.0227977167815,-1.00370585918,7.02410912514,,,,,0.11,-0.95,0.92,0.83647608757
0.0993014425039,-0.0162520743906,-0.997398734093,7.02770018578,,,,,0.14,-0.96,0.96,0.837023019791
0.101188734174,-0.016396811232,-0.995982766151,7.06298708916,,,,,0.15,-0.98,1.01,0.837572097778
0.096158452332,-0.0206501130015,-1.00205349922,7.06659317017,,,,,0.19,-0.97,1.12,0.83811712265
0.0924223661423,-0.0181402117014,-0.999718308449,7.07018303871,,,,,0.23,-0.96,1.21,0.839482069016
0.0980882942677,-0.0163936782628,-0.991480231285,7.07381510735,,,,,0.26,-0.98,1.26,0.840072154999
0.104977712035,-0.0218970235437,-0.994887948036,7.07741117477,,,,,0.27,-1.0,1.26,0.840618133545
0.105706803501,-0.0240802373737,-1.00437021255,7.11146211624,,,,,0.26,-1.04,1.24,0.841168165207
0.103390865028,-0.0211450010538,-1.00054585934,7.11511421204,,,,,0.25,-1.05,1.23,0.841713190079
0.106378033757,-0.0226604994386,-0.991926312447,7.11870908737,,,,,0.22,-1.04,1.2,0.843116044998
0.108248412609,-0.0244485344738,-1.00020110607,7.12229919434,,,,,0.2,-1.03,1.19,0.84370803833
0.102860793471,-0.0178455803543,-1.00621402264,7.15356612206,,,,,0.17,-0.99,1.19,0.844254016876
0.100732967257,-0.0157807227224,-1.00104773045,7.15715909004,,,,,0.17,-0.99,1.18,0.844806194305
0.107698984444,-0.0216563567519,-0.993546128273,7.16076111794,,,,,0.19,-0.99,1.15,0.873067140579
0.109513312578,-0.0216034185141,-1.00176227093,7.16439700127,,,,,0.22,-1.0,1.12,0.874439001083
0.0972282961011,-0.0159200113267,-1.00673818588,7.1679930687,,,,,0.28,-0.96,1.04,0.875030040741
0.0904709249735,-0.0162998139858,-0.998984217644,7.20295715332,,,,,0.28,-0.93,1.03,0.875575065613
0.10466644913,-0.0192049462348,-0.99871468544,7.20653915405,,,,,0.3,-0.87,1.02,0.876120090485
0.114011391997,-0.0164404790848,-1.00405037403,7.21013712883,,,,,0.3,-0.86,1.0,0.876667022705
0.103788264096,-0.0158625356853,-1.00120842457,7.21378016472,,,,,0.32,-0.86,0.97,0.878026008606
0.0931205227971,-0.0197845064104,-0.997509837151,7.21737313271,,,,,0.32,-0.87,0.91,0.878612995148
0.100691199303,-0.018696051091,-1.00108861923,7.25308704376,,,,,0.3,-0.85,0.86,0.879162073135
0.11303627491,-0.0169581659138,-1.00231146812,7.25668406487,,,,,0.3,-0.82,0.85,0.879705190659
0.1129129529,-0.0212492346764,-0.997391104698,7.26027703285,,,,,0.3,-0.75,0.83,0.880249977112
0.101586088538,-0.0239897649735,-0.994344234467,7.26391220093,,,,,0.3,-0.71,0.82,0.881612062454
0.0964936614037,-0.0216523539275,-0.999645709991,7.26750898361,,,,,0.28,-0.58,0.81,0.88220000267
0.103408962488,-0.0239948201925,-1.00251615047,7.3010931015,,,,,0.28,-0.55,0.81,0.882747173309
0.105701573193,-0.027679996565,-0.999242544174,7.3047440052,,,,,0.27,-0.51,0.81,0.883328199387
0.100521333516,-0.021241940558,-0.999471783638,7.30833721161,,,,,0.27,-0.49,0.82,0.883875131607
0.101161196828,-0.0140850599855,-1.00202393532,7.31191706657,,,,,0.27,-0.49,0.84,0.885236024857
0.105874098837,-0.0211367476732,-1.00166392326,7.34393000603,,,,,0.27,-0.55,0.87,0.885829210281
0.104307703674,-0.0258967559785,-1.00123596191,7.34752416611,,,,,0.29,-0.65,0.9,0.88637304306
0.0983554795384,-0.0160201154649,-1.00175142288,7.35112500191,,,,,0.31,-0.7,0.91,0.886921167374
0.098766669631,-0.0114125031978,-1.0012652874,7.35475206375,,,,,0.33,-0.81,0.91,0.887466192245
0.104242451489,-0.0211050026119,-0.998747348785,7.35833716393,,,,,0.32,-0.85,0.92,0.888828992844
0.104317456484,-0.0265583824366,-0.998801350594,7.3932352066,,,,,0.26,-0.95,0.93,0.921113014221
0.101881213486,-0.0178624298424,-0.999857068062,7.39682221413,,,,,0.23,-0.96,0.93,0.921663999557
0.102172255516,-0.0172547958791,-0.998345851898,7.40038204193,,,,,0.15,-0.95,0.94,0.922211170197
0.102757170796,-0.0292835813016,-1.00130403042,7.40405511856,,,,,0.1,-0.94,0.96,0.922766208649
0.101314842701,-0.0302888657898,-1.00432229042,7.40765309334,,,,,0.0,-0.92,0.99,0.924180984497
0.101935461164,-0.0194048397243,-0.997910857201,7.44286513329,,,,,-0.06,-0.94,1.04,0.92477107048
0.10611949116,-0.0153238717467,-0.999027013779,7.44646000862,,,,,-0.09,-0.97,1.07,0.925315141678
0.102590620518,-0.0221505854279,-1.00455081463,7.4500541687,,,,,-0.1,-0.97,1.09,0.925863027573
0.0957420021296,-0.0245048236102,-1.0034301281,7.45368313789,,,,,-0.09,-0.97,1.1,0.926409006119
0.100650496781,-0.0189392287284,-0.992772221565,7.4572930336,,,,,-0.07,-0.97,1.11,0.92777299881
0.108517855406,-0.0142547171563,-0.986599087715,7.49118518829,,,,,0.01,-1.0,1.13,0.928361177444
0.106353342533,-0.0178531650454,-0.996519684792,7.49483203888,,,,,0.04,-1.0,1.13,0.928907155991
0.100747048855,-0.0219438076019,-0.998119473457,7.49842309952,,,,,0.07,-0.98,1.13,0.929452180862
0.10206989944,-0.0231067258865,-0.991745710373,7.50201201439,,,,,0.09,-0.89,1.09,0.929998159409
0.107124134898,-0.0188813507557,-0.991194963455,7.53377914429,,,,,0.09,-0.83,1.07,0.931365013123
0.107456110418,-0.0167550649494,-1.00154268742,7.53737020493,,,,,0.1,-0.72,1.04,0.931960105896
0.106059744954,-0.0232949461788,-0.998454928398,7.54095602036,,,,,0.15,-0.67,1.06,0.932506084442
0.107331492007,-0.0272900369018,-0.991719126701,7.54458808899,,,,,0.18,-0.67,1.07,0.933088064194
0.10724812746,-0.0209748912603,-0.997632265091,7.54817605019,,,,,0.21,-0.66,1.08,0.93363904953
0.105758324265,-0.0156132858247,-1.0046736002,7.58313798904,,,,,0.25,-0.67,1.11,0.934997081757
0.103807672858,-0.0221383590251,-0.999534606934,7.58673405647,,,,,0.26,-0.73,1.15,0.935586214066
0.105114720762,-0.0260980743915,-0.996922254562,7.59032607079,,,,,0.26,-0.75,1.15,0.93613409996
0.104195304215,-0.0175828766078,-1.0020557642,7.5939540863,,,,,0.27,-0.76,1.15,0.936679124832
0.0986293852329,-0.0149303395301,-1.00377953053,7.59755516052,,,,,0.28,-0.78,1.14,0.937225103378
0.0934792309999,-0.0246878471226,-1.00122201443,7.63293004036,,,,,0.28,-0.78,1.13,0.970102071762
0.0969876497984,-0.0243960563093,-1.0020442009,7.63653421402,,,,,0.25,-0.76,1.08,0.970692157745
0.104381456971,-0.013925967738,-1.00482141972,7.64012598991,,,,,0.23,-0.75,1.06,0.971238136292
0.101860374212,-0.0169128458947,-1.00099790096,7.64375209808,,,,,0.18,-0.71,1.02,0.971784114838
0.094857595861,-0.0276498701423,-0.995141267776,7.6473300457,,,,,0.15,-0.69,1.01,0.972329139709
0.0961299985647,-0.0247991252691,-0.998509407043,7.68096017838,,,,,0.08,-0.68,0.99,0.973753213882
0.107693240047,-0.0132873076946,-1.00037407875,7.68460607529,,,,,0.01,-0.71,0.98,0.974342107773
0.111518844962,-0.0161192957312,-0.994649529457,7.68820214272,,,,,-0.03,-0.76,0.97,0.974889039993
0.0985422879457,-0.0258798841387,-0.995217561722,7.69179201126,,,,,-0.05,-0.79,0.97,0.975432157516
0.0907151848078,-0.0221016015857,-0.999601721764,7.72366213799,,,,,-0.1,-0.84,0.94,0.975979089737
0.0980795323849,-0.0153693277389,-0.996203541756,7.72725510597,,,,,-0.11,-0.86,0.91,0.977342128754
0.105218619108,-0.0182641278952,-0.994189500809,7.73085403442,,,,,-0.13,-0.91,0.78,0.977931022644
0.0980389788747,-0.0221315082163,-0.99899315834,7.73448514938,,,,,-0.12,-0.94,0.75,0.978476047516
0.088412091136,-0.0199830215424,-1.00063717365,7.7380771637,,,,,-0.09,-0.99,0.75,0.979022979736
0.0937643572688,-0.0229273680598,-1.0023277998,7.77332401276,,,,,-0.07,-1.01,0.76,0.97956609726
0.104044094682,-0.0234759133309,-1.00355410576,7.77691817284,,,,,-0.05,-1.05,0.75,0.98094701767
0.1042413041,-0.0161349065602,-1.00161588192,7.78086709976,,,,,-0.03,-1.05,0.72,0.981539011002
0.100016377866,-0.0130239184946,-0.996428728104,7.78453397751,,,,,-0.03,-1.02,0.72,0.982089042664
0.105997249484,-0.0197419319302,-0.998604536057,7.78812003136,,,,,-0.03,-1.01,0.74,0.982638120651
0.112529456615,-0.0234473925084,-1.00145316124,7.82405114174,,,,,0.0,-0.98,0.82,0.983221054077
0.107659429312,-0.0190526936203,-0.997691869736,7.82764005661,,,,,0.03,-0.97,0.84,0.984586000443
0.0972649529576,-0.0173931382596,-0.994799375534,7.83123111725,,,,,0.09,-0.89,0.83,0.985176086426
0.0978189110756,-0.0219710916281,-0.999711632729,7.83487319946,,,,,0.09,-0.85,0.82,0.985721111298
0.107757851481,-0.0194788835943,-1.00418412685,7.86634612083,,,,,0.08,-0.78,0.85,0.986267089844
0.106605991721,-0.0154399368912,-0.999952197075,7.86993813515,,,,,0.08,-0.75,0.88,0.986811161041
0.0947364419699,-0.0200931746513,-0.99531006813,7.87359118462,,,,,0.07,-0.7,0.98,1.01715517044
0.0967024639249,-0.0235181357712,-1.0018569231,7.87718319893,,,,,0.02,-0.66,1.07,1.01774501801
0.109464675188,-0.0179627444595,-1.00522828102,7.88078808784,,,,,-0.05,-0.67,1.11,1.01829004288
0.105333551764,-0.0170490033925,-0.996363639832,7.91299104691,,,,,-0.09,-0.69,1.12,1.01883816719
0.0896672829986,-0.0202828068286,-0.994500041008,7.91658401489,,,,,-0.11,-0.76,1.12,1.01938509941
0.0913446843624,-0.019210582599,-1.00324988365,7.92018318176,,,,,-0.1,-0.8,1.12,1.02075099945
0.105696305633,-0.0166360791773,-0.999910712242,7.92383813858,,,,,-0.06,-0.88,1.14,1.02133917809
0.106229275465,-0.0182683970779,-0.98986852169,7.92743611336,,,,,-0.05,-0.9,1.12,1.0218641758
0.0940227657557,-0.0184632968158,-0.994102239609,7.96314716339,,,,,0.0,-0.96,1.03,1.02241015434
0.0924111306667,-0.0135084073991,-1.0050702095,7.96672105789,,,,,0.05,-0.99,0.98,1.02300405502
0.104229837656,-0.0169093906879,-1.00384604931,7.97031497955,,,,,0.17,-1.0,0.91,1.02437114716
0.105030864477,-0.0233490411192,-0.995472311974,7.9739420414,,,,,0.24,-0.95,0.91,1.02496099472
0.0943665206432,-0.0199533253908,-0.998344421387,7.97754406929,,,,,0.24,-0.89,0.91,1.02551007271
0.0952724143863,-0.0152301564813,-1.00484800339,8.01291298866,,,,,0.22,-0.87,0.9,1.02605509758
0.103970758617,-0.0197756737471,-1.00115168095,8.01654410362,,,,,0.2,-0.86,0.89,1.02662420273
0.103344671428,-0.0235612560064,-0.995149493217,8.02016615868,,,,,0.18,-0.83,0.88,1.02800917625
0.101872861385,-0.0152252279222,-0.997620344162,8.02379918098,,,,,0.15,-0.79,0.9,1.02859711647
0.105329334736,-0.0104222092777,-1.00008201599,8.0563621521,,,,,0.12,-0.79,0.9,1.02914500237
0.104797020555,-0.0181617923081,-0.999559283257,8.05997014046,,,,,0.07,-0.81,0.88,1.0296959877
0.10111913085,-0.0208447277546,-0.998710393906,8.0636382103,,,,,0.05,-0.83,0.88,1.03024220467
0.0994529426098,-0.0133836772293,-0.99978685379,8.0671980381,,,,,0.04,-0.87,0.9,1.03160500526
0.0970026105642,-0.0150306280702,-0.999352812767,8.07078814507,,,,,0.1,-0.94,0.9,1.03219604492
0.0971485301852,-0.0227827150375,-0.999114871025,8.10361409187,,,,,0.17,-1.04,0.87,1.03274106979
0.105787061155,-0.0211261548102,-0.997973442078,8.10719013214,,,,,0.19,-1.09,0.84,1.06185817719
0.108937636018,-0.0188892241567,-0.992815375328,8.11078214645,,,,,0.2,-1.13,0.81,1.06241703033
0.101558372378,-0.0220387335867,-0.997013568878,8.11442112923,,,,,0.16,-1.16,0.79,1.06384205818
0.0994086712599,-0.0215631555766,-1.00370061398,8.11801505089,,,,,0.08,-1.08,0.85,1.06443309784
0.107933707535,-0.0171802733094,-0.99981033802,8.15327906609,,,,,0.07,-1.05,0.87,1.06497716904
0.108672693372,-0.0184846390039,-0.992733597755,8.15687203407,,,,,0.07,-1.02,0.89,1.06552505493
0.0987062826753,-0.0206678789109,-0.996440887451,8.16046500206,,,,,0.05,-0.96,0.91,1.06607103348
0.0935181453824,-0.0168114174157,-1.0007032156,8.16411113739,,,,,0.02,-0.89,0.92,1.06743502617
0.097597040236,-0.0157480854541,-0.993651986122,8.16771101952,,,,,0.01,-0.83,0.97,1.06803202629
0.10233233124,-0.0232837740332,-0.991277933121,8.20267319679,,,,,0.03,-0.82,1.0,1.06857705116
0.105242066085,-0.0221895929426,-1.00112736225,8.20634412766,,,,,0.1,-0.87,1.03,1.06912302971
0.105195812881,-0.0132158268243,-1.00786328316,8.20993709564,,,,,0.15,-0.92,1.03,1.06967115402
0.103790402412,-0.015585962683,-1.00166261196,8.21357011795,,,,,0.2,-1.05,0.96,1.07103610039
0.105898484588,-0.0213948655874,-0.993579745293,8.24666500092,,,,,0.18,-1.21,0.85,1.07162308693
0.110515549779,-0.0143084172159,-1.00074827671,8.25026702881,,,,,0.16,-1.25,0.84,1.07217121124
0.111723482609,-0.00904304347932,-1.00309586525,8.25392317772,,,,,0.15,-1.27,0.82,1.0727159977
0.107264757156,-0.0165809355676,-0.99325966835,8.25750398636,,,,,0.12,-1.27,0.78,1.07329702377
0.106947854161,-0.0253263134509,-0.991912126541,8.261095047,,,,,0.1,-1.24,0.75,1.07466220856
0.10819876194,-0.0218467283994,-1.00014364719,8.29309415817,,,,,0.05,-1.08,0.67,1.07525014877
0.103574626148,-0.0184125918895,-0.998155474663,8.29669117928,,,,,0.04,-1.03,0.67,1.07579803467
0.096159055829,-0.024929208681,-0.995433330536,8.30028510094,,,,,0.02,-0.91,0.68,1.07634305954
0.0976014435291,-0.0269834119827,-1.00035643578,8.30392313004,,,,,0.01,-0.85,0.68,1.07689619064
0.10288926214,-0.0197210852057,-1.0028219223,8.30751919746,,,,,0.0,-0.74,0.68,1.07825708389
0.10071734339,-0.018913442269,-0.996215701103,8.34313702583,,,,,-0.02,-0.64,0.69,1.11115098
0.096705570817,-0.0204648394138,-0.993188977242,8.34673309326,,,,,-0.02,-0.58,0.74,1.11170220375
0.0974422618747,-0.0163221936673,-0.998959898949,8.35031914711,,,,,-0.01,-0.58,0.77,1.1122481823
0.107503071427,-0.0172640886158,-1.00264763832,8.35394716263,,,,,0.0,-0.62,0.83,1.11283707619
0.114402517676,-0.0212073288858,-0.996685862541,8.3575360775,,,,,0.05,-0.67,0.86,1.11420798302
0.106647469103,-0.01925268583,-0.992850661278,8.39258599281,,,,,0.1,-0.7,0.86,1.11479711533
0.0973269417882,-0.0208506565541,-0.999738335609,8.39623403549,,,,,0.14,-0.71,0.86,1.11534309387
0.0997979789972,-0.0290210712701,-1.00144135952,8.39982819557,,,,,0.22,-0.74,0.84,1.11589002609
0.102980315685,-0.0287537854165,-0.99880361557,8.40346002579,,,,,0.25,-0.76,0.83,1.11643505096
0.1007649526,-0.020292846486,-0.998125553131,8.43618917465,,,,,0.29,-0.78,0.75,1.1178021431
0.0999755635858,-0.0196556095034,-0.998569011688,8.43979811668,,,,,0.28,-0.77,0.73,1.11839199066
0.106161035597,-0.0281156171113,-0.997998714447,8.44348311424,,,,,0.24,-0.73,0.67,1.11894512177
0.106487780809,-0.0244815181941,-0.996900200844,8.44708299637,,,,,0.21,-0.72,0.64,1.11949205399
0.0976176559925,-0.0112087037414,-0.996140122414,8.45068407059,,,,,0.17,-0.7,0.59,1.12003803253
0.0962328538299,-0.012618618086,-0.99925160408,8.48289513588,,,,,0.16,-0.7,0.58,1.12140417099
0.105250328779,-0.0229722280055,-1.00356030464,8.4864821434,,,,,0.12,-0.71,0.6,1.12199306488
0.10727879405,-0.0209236126393,-1.00527107716,8.49007105827,,,,,0.1,-0.73,0.63,1.12253904343
0.0988739430904,-0.0154354702681,-0.99658703804,8.49370408058,,,,,0.07,-0.79,0.68,1.12312316895
0.0942847430706,-0.0233665239066,-0.995988488197,8.49730014801,,,,,0.06,-0.84,0.7,1.12367200851
0.100686401129,-0.031616859138,-1.00246655941,8.53298401833,,,,,0.07,-0.95,0.75,1.12503910065
0.105511799455,-0.0241761896759,-1.00576686859,8.53658008575,,,,,0.09,-1.05,0.8,1.12563109398
0.107955239713,-0.0153855476528,-0.995976686478,8.5401802063,,,,,0.1,-1.13,0.84,1.12617707253
0.108830653131,-0.0190566498786,-0.993824601173,8.54381799698,,,,,0.1,-1.16,0.86,1.12672305107
0.106290861964,-0.0241772513837,-1.00625145435,8.5474190712,,,,,0.1,-1.19,0.87,1.12726807594
0.105598568916,-0.0196988619864,-1.00521326065,8.5825111866,,,,,0.09,-1.19,0.87,1.15991997719
0.104723393917,-0.0156435314566,-0.995035529137,8.58615112305,,,,,0.05,-1.11,0.85,1.16051220894
0.102842435241,-0.0177793819457,-0.996738553047,8.58974909782,,,,,0.04,-1.06,0.84,1.16105699539
0.0987316966057,-0.0211584791541,-1.00672447681,8.59337306023,,,,,0.05,-0.98,0.83,1.16160202026
0.0968810170889,-0.022972645238,-1.00357353687,8.62675499916,,,,,0.05,-0.94,0.83,1.1621491909
0.100871652365,-0.021677615121,-0.991906166077,8.63036513329,,,,,0.05,-0.87,0.85,1.16356420517
0.100989356637,-0.018700581044,-0.997442483902,8.63402318954,,,,,0.01,-0.8,0.87,1.16415214539
0.101471170783,-0.0199812296778,-1.00469315052,8.637622118,,,,,-0.01,-0.75,0.88,1.16469812393
0.108233787119,-0.0231488030404,-1.00032031536,8.64121317863,,,,,0.0,-0.73,0.88,1.16524219513
0.110644340515,-0.0209459643811,-0.991903305054,8.67295503616,,,,,0.01,-0.74,0.87,1.16579198837
0.101942256093,-0.0140084512532,-0.996988415718,8.67655801773,,,,,0.05,-0.75,0.82,1.16715812683
0.0981292203069,-0.0167809184641,-1.00567781925,8.68015098572,,,,,0.05,-0.76,0.64,1.16774606705
0.0983503013849,-0.025563320145,-0.99883544445,8.68379402161,,,,,0.04,-0.75,0.57,1.16829419136
0.102092377841,-0.0259435605258,-0.996122479439,8.68739199638,,,,,0.04,-0.74,0.51,1.1688439846
0.103161908686,-0.0175427813083,-0.999543070793,8.72292900085,,,,,0.05,-0.73,0.42,1.16939210892
0.0966823771596,-0.0196402985603,-1.00102412701,8.72653698921,,,,,0.06,-0.72,0.41,1.17075300217
0.0945147126913,-0.0275152679533,-0.999680280685,8.73013114929,,,,,0.06,-0.69,0.41,1.17134213448
0.0983893796802,-0.0247072111815,-0.998242855072,8.73376512527,,,,,0.05,-0.7,0.43,1.17189002037
0.103718273342,-0.019102845341,-0.998393177986,8.73735117912,,,,,0.05,-0.71,0.45,1.17243504524
0.105123236775,-0.022368228063,-0.998760938644,8.77241706848,,,,,0.04,-0.73,0.49,1.17301416397
0.099268078804,-0.0229614358395,-1.00223076344,8.77608108521,,,,,0.06,-0.77,0.59,1.17438006401
0.0974162146449,-0.0146744456142,-1.00171792507,8.77967715263,,,,,0.13,-0.8,0.77,1.17497014999
0.106005124748,-0.0128880161792,-0.996611833572,8.78330898285,,,,,0.16,-0.82,0.8,1.17551708221
0.112656123936,-0.0192007627338,-0.996986508369,8.81483912468,,,,,0.19,-0.83,0.83,1.17606210709
0.107509694993,-0.0193889699876,-0.999222874641,8.81843709946,,,,,0.22,-0.89,0.83,1.17660808563
0.10420294106,-0.0150735806674,-0.997175335884,8.82203698158,,,,,0.23,-0.93,0.82,1.20723819733
0.108868546784,-0.0181796755642,-0.994181632996,8.82569313049,,,,,0.26,-1.03,0.77,1.20783114433
0.106936059892,-0.0236938875169,-0.995166659355,8.82928109169,,,,,0.27,-1.06,0.75,1.20837497711
0.0975074768066,-0.0219236761332,-1.00196003914,8.8633210659,,,,,0.27,-1.12,0.7,1.20892310143
0.0986257940531,-0.0199710130692,-0.997177600861,8.86693406105,,,,,0.27,-1.14,0.68,1.20946717262
0.114287666976,-0.0232410412282,-0.996693253517,8.87054300308,,,,,0.25,-1.17,0.61,1.21083211899
0.109480276704,-0.0231873262674,-1.00156509876,8.87418699265,,,,,0.23,-1.18,0.55,1.21142315865
0.0912607312202,-0.0178004931659,-1.00025963783,8.87777900696,,,,,0.21,-1.18,0.52,1.21196699142
0.0929382145405,-0.0152182411402,-0.995522856712,8.91346216202,,,,,0.2,-1.17,0.52,1.21251511574
0.110310606658,-0.0187502074987,-0.994854688644,8.91705298424,,,,,0.16,-1.12,0.55,1.21312308311
0.110597014427,-0.0198211986572,-1.00135302544,8.92065405846,,,,,0.13,-1.08,0.58,1.2144920826
0.0974386259913,-0.0175720863044,-0.998607397079,8.92430305481,,,,,0.06,-0.97,0.66,1.21508312225
0.0972957536578,-0.0182250309736,-0.994733691216,8.92790007591,,,,,0.05,-0.94,0.69,1.21562814713
0.109974555671,-0.0222196504474,-0.99679005146,8.96229505539,,,,,0.07,-0.91,0.75,1.21617603302
0.112307563424,-0.0228853095323,-1.00030982494,8.96594119072,,,,,0.08,-0.91,0.77,1.21672606468
0.102250166237,-0.0229360852391,-0.997573256493,8.9695391655,,,,,0.1,-0.94,0.79,1.2180891037
0.101131238043,-0.0246274527162,-0.990141987801,8.97317004204,,,,,0.14,-0.99,0.78,1.21868014336
0.104371711612,-0.0202310364693,-0.997689604759,9.00482010841,,,,,0.21,-1.03,0.73,1.21922516823
0.0990780591965,-0.0193864237517,-1.00395798683,9.00842499733,,,,,0.25,-1.05,0.7,1.21977210045
0.100166834891,-0.0186607073992,-0.992015242577,9.01202106476,,,,,0.29,-1.05,0.61,1.22031712532
0.0999250486493,-0.0112081151456,-0.993593931198,9.01567316055,,,,,0.3,-1.04,0.55,1.2216861248
0.0951372459531,-0.0136966388673,-1.00916683674,9.01927018166,,,,,0.28,-0.93,0.43,1.22227406502
0.0899041295052,-0.0151852350682,-1.00151348114,9.05314016342,,,,,0.28,-0.9,0.42,1.22285199165
0.0811659768224,-0.0135601852089,-0.991165161133,9.05674314499,,,,,0.29,-0.87,0.44,1.25196504593
0.095526009798,-0.0177052449435,-1.00903594494,9.06033110619,,,,,0.29,-0.87,0.46,1.25251698494
0.10196634382,-0.0190457850695,-1.00707781315,9.06395816803,,,,,0.28,-0.82,0.5,1.25393509865
0.0939373970032,-0.022426603362,-0.99178314209,9.06755709648,,,,,0.26,-0.75,0.54,1.2545311451
0.107834242284,-0.0245363656431,-0.995042085648,9.10309505463,,,,,0.25,-0.75,0.61,1.25507807732
0.104979231954,-0.0227198284119,-1.01148104668,9.10669612885,,,,,0.25,-0.79,0.65,1.25562214851
0.0976621285081,-0.0211909543723,-0.999278306961,9.11029005051,,,,,0.24,-0.88,0.71,1.25617003441
0.106342896819,-0.0196404661983,-0.988926887512,9.11390304565,,,,,0.23,-0.91,0.72,1.25753211975
0.110445544124,-0.0176470670849,-1.01504421234,9.11750221252,,,,,0.21,-0.9,0.71,1.25812101364
0.10578828305,-0.0122888516635,-0.997664570808,9.15118908882,,,,,0.21,-0.88,0.69,1.25866913795
0.102617658675,-0.0199773162603,-0.978777885437,9.15483808517,,,,,0.21,-0.86,0.66,1.2592151165
0.112690538168,-0.017007952556,-1.00853550434,9.15843605995,,,,,0.21,-0.86,0.65,1.25976109505
0.109126344323,-0.0163267124444,-1.00291800499,9.16205906868,,,,,0.22,-0.86,0.63,1.26122999191
0.10070194304,-0.021263692528,-0.98436653614,9.19457817078,,,,,0.24,-0.85,0.59,1.26185011864
0.106732353568,-0.0202311687171,-1.01009583473,9.19817709923,,,,,0.26,-0.82,0.54,1.26239800453
0.100015617907,-0.024559089914,-1.0080974102,9.20174407959,,,,,0.26,-0.81,0.51,1.26298308372
0.093478962779,-0.0227542016655,-0.983902215958,9.20542001724,,,,,0.25,-0.8,0.49,1.26353311539
0.099810063839,-0.0268215667456,-1.00881898403,9.20901417732,,,,,0.22,-0.8,0.49,1.26491212845
0.0968894287944,-0.0197785682976,-1.00661766529,9.24330806732,,,,,0.17,-0.8,0.5,1.26550102234
0.0940735340118,-0.0199474412948,-0.987456679344,9.24639010429,,,,,0.14,-0.8,0.51,1.26604819298
0.101826705039,-0.0168993417174,-1.00689220428,9.24997806549,,,,,0.12,-0.8,0.52,1.26659297943
0.0997901931405,-0.0129773952067,-1.00166583061,9.25361514091,,,,,0.05,-0.8,0.59,1.26714015007
0.100701972842,-0.0172128546983,-0.984077215195,9.25720906258,,,,,0.02,-0.82,0.64,1.26849913597
0.106105148792,-0.0181693546474,-1.00274384022,9.29297709465,,,,,0.05,-0.87,0.76,1.30085110664
0.102175429463,-0.0179817508906,-1.00343024731,9.29658102989,,,,,0.16,-0.89,0.78,1.30140113831
0.103341393173,-0.014752080664,-0.987120270729,9.30017709732,,,,,0.21,-0.89,0.78,1.30195116997
0.0993518829346,-0.0165163576603,-1.00056266785,9.30382013321,,,,,0.25,-0.9,0.78,1.30249619484
0.0929435715079,-0.0168999489397,-1.00432014465,9.30742001534,,,,,0.29,-0.92,0.79,1.30391907692
0.0892855226994,-0.0156851131469,-0.984257340431,9.34227108955,,,,,0.39,-0.94,0.8,1.30451107025
0.103868484497,-0.0195769742131,-1.00443041325,9.34592700005,,,,,0.42,-0.92,0.79,1.30506110191
0.101454168558,-0.019524011761,-1.00555503368,9.34951901436,,,,,0.45,-0.9,0.78,1.30560898781
0.0979886054993,-0.0220927018672,-0.982763171196,9.35315418243,,,,,0.45,-0.86,0.73,1.30615615845
0.110386386514,-0.0207507796586,-0.999770998955,9.38484120369,,,,,0.41,-0.86,0.7,1.30752205849
0.106902070343,-0.0181352403015,-1.00908350945,9.38843512535,,,,,0.27,-0.85,0.7,1.30811214447
0.100304193795,-0.0181510522962,-0.984737634659,9.39203906059,,,,,0.24,-0.86,0.71,1.30865907669
0.100741475821,-0.0190686807036,-0.99604177475,9.39570307732,,,,,0.21,-0.88,0.75,1.309207201
0.103777877986,-0.0184999052435,-1.01461982727,9.39930200577,,,,,0.21,-0.9,0.75,1.3097550869
0.103321053088,-0.0198745578527,-0.991745710373,9.43327307701,,,,,0.17,-0.95,0.75,1.31111812592
0.109297946095,-0.0280586052686,-1.00037074089,9.43687319756,,,,,0.05,-0.99,0.77,1.31170606613
0.10708528012,-0.0283105503768,-1.00734269619,9.44047403336,,,,,0.03,-0.99,0.77,1.31225299835
0.103183165193,-0.0304944273084,-0.988032817841,9.44410514832,,,,,0.02,-0.97,0.77,1.31282711029
0.105540841818,-0.0265211071819,-1.00160741806,9.4476981163,,,,,0.05,-0.95,0.74,1.31338620186
0.0986999869347,-0.0219394434243,-1.00945818424,9.48295712471,,,,,0.06,-0.94,0.72,1.31475520134
0.0990960001945,-0.0187069606036,-0.993384599686,9.48653411865,,,,,0.02,-0.9,0.72,1.31534409523
0.0958495810628,-0.015653071925,-1.0012871027,9.49012517929,,,,,-0.01,-0.89,0.74,1.31589198112
0.0956963598728,-0.0132944379002,-1.00279760361,9.49376106262,,,,,-0.05,-0.89,0.79,1.31643915176
0.10112670064,-0.0133693367243,-0.996924877167,9.49735116959,,,,,-0.04,-0.9,0.82,1.31698703766
0.104518629611,-0.0158464461565,-1.00301384926,9.53126716614,,,,,0.0,-0.9,0.88,1.34997820854
0.103599943221,-0.0168743487448,-0.998197197914,9.53492212296,,,,,0.01,-0.88,0.98,1.35056805611
0.101865835488,-0.018620505929,-1.00121796131,9.53850507736,,,,,0.0,-0.87,1.08,1.35111618042
0.0971573889256,-0.0204807501286,-1.00373280048,9.54209899902,,,,,0.0,-0.88,1.12,1.35166311264
0.091336324811,-0.0242954101413,-1.00214922428,9.57458519936,,,,,0.0,-0.91,1.13,1.35220813751
0.0912968590856,-0.023657893762,-1.00016856194,9.57818603516,,,,,0.04,-0.87,1.11,1.35362100601
0.0939387381077,-0.0268005933613,-0.999106049538,9.58177804947,,,,,0.05,-0.79,1.09,1.35421299934
0.10098053515,-0.0281118284911,-0.996152281761,9.58542013168,,,,,0.04,-0.76,1.08,1.35476207733
0.107762873173,-0.0261753778905,-0.990795135498,9.58899211884,,,,,0.0,-0.75,1.05,1.35531210899
0.11555673182,-0.0191828180104,-0.994250655174,9.62306499481,,,,,-0.02,-0.77,1.02,1.35585808754
0.10842897743,-0.013115266338,-0.99486887455,9.62666797638,,,,,-0.1,-0.79,0.95,1.35721802711
0.100374214351,-0.0127064120024,-0.997440218925,9.63026309013,,,,,-0.13,-0.78,0.94,1.35780906677
0.100497081876,-0.0120036825538,-0.998143553734,9.63389205933,,,,,-0.18,-0.73,0.94,1.35835409164
0.0968167409301,-0.0101919341832,-0.991931915283,9.6374900341,,,,,-0.2,-0.71,0.93,1.35890197754
0.0998861119151,-0.0132894217968,-0.987015962601,9.67267608643,,,,,-0.22,-0.72,0.89,1.35944604874
0.0986007302999,-0.0222539473325,-0.995134592056,9.67632007599,,,,,-0.22,-0.73,0.86,1.36081004143
0.0968747437,-0.0296405237168,-1.00648164749,9.67991709709,,,,,-0.16,-0.81,0.78,1.36140012741
0.0993740484118,-0.0278382692486,-1.00120854378,9.6835501194,,,,,-0.13,-0.83,0.76,1.36194419861
0.103688269854,-0.0195937659591,-0.997454881668,9.68715214729,,,,,-0.05,-0.85,0.72,1.36249017715
0.106001138687,-0.0114864893258,-0.993481278419,9.72116804123,,,,,0.0,-0.87,0.69,1.36307215691
0.104789108038,-0.0124879758805,-1.00866270065,9.72481608391,,,,,0.08,-0.89,0.65,1.36443901062
0.106053009629,-0.0117991492152,-1.01230359077,9.72841906548,,,,,0.15,-0.93,0.65,1.36503505707
0.10127530992,-0.0135957021266,-0.997661113739,9.73200321198,,,,,0.19,-0.95,0.67,1.36558198929
0.0959557667375,-0.0197116732597,-0.994053721428,9.76471114159,,,,,0.2,-0.95,0.68,1.36612606049
0.100265488029,-0.0186927784234,-1.01239132881,9.76828408241,,,,,0.22,-0.91,0.69,1.36667203903
0.0994021743536,-0.0176725704223,-1.01637005806,9.77187204361,,,,,0.23,-0.89,0.69,1.39577698708
0.0902564451098,-0.0169656593353,-1.00547063351,9.77553009987,,,,,0.23,-0.83,0.69,1.39636516571
0.0889697670937,-0.0152480788529,-1.00502872467,9.77911901474,,,,,0.22,-0.83,0.7,1.39691114426
0.0960346609354,-0.0161169040948,-1.01347148418,9.81382799149,,,,,0.19,-0.84,0.7,1.39745903015
0.0976055338979,-0.0198890473694,-1.01071715355,9.81741714478,,,,,0.17,-0.85,0.69,1.39800620079
0.0981046929955,-0.0175995212048,-1.00168120861,9.82099819183,,,,,0.15,-0.84,0.69,1.39936518669
0.101941362023,-0.0208557900041,-1.00005376339,9.8246819973,,,,,0.12,-0.8,0.73,1.39995217323
0.104045324028,-0.0230525489897,-0.997796297073,9.82825016975,,,,,0.09,-0.8,0.77,1.40049815178
0.100998215377,-0.0234624054283,-0.994455337524,9.86307406425,,,,,0.06,-0.81,0.8,1.40104317665
0.104302749038,-0.0224261861295,-0.997820258141,9.86665201187,,,,,0.02,-0.82,0.83,1.40159416199
0.105705909431,-0.0235312376171,-1.00016570091,9.87024712563,,,,,-0.05,-0.83,0.9,1.40307116508
0.104633674026,-0.0237810146064,-0.996702551842,9.87387704849,,,,,-0.07,-0.89,0.94,1.40366506577
0.109066672623,-0.019977349788,-0.995781779289,9.87746906281,,,,,-0.06,-0.92,0.94,1.40421414375
0.111925400794,-0.0136718247086,-1.00220501423,9.91121411324,,,,,-0.04,-0.95,0.93,1.40476107597
0.113687217236,-0.010676600039,-1.00260257721,9.91487216949,,,,,-0.01,-0.99,0.91,1.40530920029
0.117215789855,-0.0132554341108,-0.997012019157,9.91846203804,,,,,0.0,-1.01,0.9,1.40667510033
0.117023080587,-0.0165805686265,-0.996267914772,9.92207312584,,,,,0.09,-1.05,0.9,1.40726613998
0.100267633796,-0.0155252534896,-1.00322246552,9.95348405838,,,,,0.13,-1.07,0.9,1.40781211853
0.0940464437008,-0.011869976297,-1.0028346777,9.95707702637,,,,,0.18,-1.07,0.9,1.40835499763
0.100730009377,-0.0148372612894,-0.997389912605,9.96067404747,,,,,0.19,-1.05,0.91,1.40890216827
0.105381160975,-0.0187041088939,-0.995340585709,9.9643061161,,,,,0.18,-1.0,0.97,1.4102640152
0.0963989272714,-0.0164598468691,-0.99810731411,9.96790099144,,,,,0.15,-0.88,1.1,1.41085219383
0.0935552492738,-0.0146843343973,-1.0065908432,10.0030021667,,,,,0.14,-0.84,1.14,1.41140508652
0.100725293159,-0.0196740236133,-1.00369739532,10.0065979958,,,,,0.15,-0.8,1.17,1.44171619415
0.0972368046641,-0.0188555214554,-1.00613164902,10.0101850033,,,,,0.16,-0.74,1.19,1.44226408005
0.0902038440108,-0.0180644486099,-1.00798642635,10.0138001442,,,,,0.17,-0.72,1.18,1.44367408752
0.0863109603524,-0.0151136126369,-1.00205945969,10.0173881054,,,,,0.22,-0.59,1.13,1.44426298141
0.0963360965252,-0.0143674779683,-0.998327851295,10.0530860424,,,,,0.24,-0.53,1.12,1.44480705261
0.116552531719,-0.0122855380177,-1.00065171719,10.0566840172,,,,,0.29,-0.43,1.1,1.44535398483
0.125221505761,-0.0116041880101,-1.00118243694,10.0607252121,,,,,0.31,-0.4,1.1,1.44590115547
0.120214723051,-0.0169755928218,-0.998619437218,10.0644130707,,,,,0.3,-0.38,1.07,1.44726514816
0.108349055052,-0.0198652669787,-0.997975587845,10.0679831505,,,,,0.26,-0.41,1.04,1.44785404205
0.0986666083336,-0.0224009659141,-0.989994764328,10.1011819839,,,,,0.21,-0.48,1.02,1.4484000206
0.0908988416195,-0.02107013762,-0.995904564857,10.1048500538,,,,,0.18,-0.54,1.02,1.44894719124
0.0923846960068,-0.0255054663867,-1.00279116631,10.1084480286,,,,,0.1,-0.7,1.02,1.44949197769
0.0849977955222,-0.0275521781296,-1.00235331059,10.112016201,,,,,0.05,-0.78,1.02,1.45086312294
0.0844987779856,-0.0318972617388,-1.00233483315,10.1432480812,,,,,-0.07,-1.0,1.0,1.4514541626
0.0922341272235,-0.031323865056,-1.00233697891,10.1456441879,,,,,-0.08,-1.05,0.97,1.45200014114
0.0965802669525,-0.0266883652657,-0.998971223831,10.1480300426,,,,,-0.06,-1.12,0.92,1.45254898071
0.096655793488,-0.0216116700321,-1.00296902657,10.1504061222,,,,,-0.04,-1.13,0.89,1.45312809944
0.0977755934,-0.0199461039156,-1.00407874584,10.1528191566,,,,,0.0,-1.09,0.85,1.45449900627
0.100230462849,-0.0197308454663,-0.993473410606,10.1921050549,,,,,0.01,-0.96,0.84,1.45508909225
0.105188183486,-0.0173276234418,-0.991807460785,10.1945331097,,,,,0.06,-0.83,0.85,1.45563411713
0.112502679229,-0.0145006161183,-0.994960784912,10.196917057,,,,,0.1,-0.78,0.85,1.456179142
0.111323207617,-0.0172426141798,-1.00408565998,10.1993041039,,,,,0.18,-0.73,0.86,1.45672416687
0.102999038994,-0.0211069528013,-1.0031722784,10.2016940117,,,,,0.22,-0.73,0.86,1.49038410187
0.0972836017609,-0.0149304531515,-0.996651411057,10.2429170609,,,,,0.27,-0.8,0.9,1.49098300934
0.096794962883,-0.0118977446109,-0.99483525753,10.2465240955,,,,,0.29,-0.84,0.92,1.49153208733
0.101852074265,-0.0197010524571,-0.990573763847,10.2501111031,,,,,0.31,-0.93,0.96,1.4920861721
0.107966676354,-0.0282704737037,-0.99836575985,10.2537500858,,,,,0.33,-0.97,0.98,1.492634058
0.110164158046,-0.0323635786772,-1.01540100574,10.2573480606,,,,,0.34,-1.0,1.03,1.49405813217
0.0974282994866,-0.0264051724225,-1.01996457577,10.2910470963,,,,,0.32,-1.0,1.07,1.49464917183
0.0732481181622,-0.0103959497064,-1.00721120834,10.2947130203,,,,,0.27,-0.98,1.07,1.49519515038
0.0582162067294,0.0047666747123,-0.99160015583,10.2983109951,,,,,0.23,-0.96,1.06,1.49573802948
0.0625006258488,0.00248815864325,-0.998800635338,10.3019030094,,,,,0.17,-0.9,1.03,1.49628710747
0.0760603174567,-0.021700097248,-1.00214409828,10.333643198,,,,,0.14,-0.87,1.02,1.49765300751
0.0801376476884,-0.0307823028415,-0.998903512955,10.3372240067,,,,,0.05,-0.81,0.97,1.49823999405
0.0905441343784,-0.0275778975338,-1.00246191025,10.3408141136,,,,,0.01,-0.82,0.94,1.49878811836
0.105683431029,-0.0414047315717,-1.00290381908,10.34446311,,,,,-0.05,-0.84,0.9,1.49933099747
0.106084555387,-0.0463665351272,-1.01338601112,10.3480331898,,,,,-0.09,-0.85,0.89,1.49987721443
0.10226739943,-0.0533566996455,-1.01243436337,10.3835380077,,,,,-0.13,-0.86,0.9,1.50124311447
0.0933754816651,-0.0344548374414,-1.01431822777,10.3871290684,,,,,-0.15,-0.85,0.94,1.50183606148
0.0785547122359,0.00911038182676,-1.01058983803,10.3907220364,,,,,-0.16,-0.84,0.97,1.50238513947
0.0767495930195,0.0268762391061,-0.982888460159,10.3943610191,,,,,-0.16,-0.84,0.99,1.5029630661
0.0935262814164,0.0129461791366,-0.981609225273,10.3979310989,,,,,-0.17,-0.83,1.0,1.50351405144
0.0985663384199,-0.00602803658694,-0.997114777565,10.4330511093,,,,,-0.18,-0.8,0.99,1.50487518311
0.0936475619674,-0.0157681275159,-1.00393247604,10.4366509914,,,,,-0.12,-0.76,-14372264.11,1.505464077
0.0905926972628,-0.0185549948364,-1.02279210091,10.4402220249,,,,,0.0,-0.8,0.82,1.50605916977
0.0896553322673,-0.00461684260517,-1.03481972218,10.4439120293,,,,,0.16,-0.86,0.77,1.50660300255
0.0908808559179,0.0019167046994,-1.04771864414,10.4475049973,,,,,0.27,-0.89,0.74,1.5398581028
0.0823494493961,-0.00433607120067,-1.04642057419,10.4810800552,,,,,0.32,-0.9,0.73,1.54052305222
0.0677548870444,-0.000921571627259,-1.02734100819,10.4847819805,,,,,0.34,-0.91,0.74,1.54109406471
0.0644059479237,0.00844931602478,-1.006752491,10.4883780479,,,,,0.34,-0.91,0.75,1.54164814949
0.0694055855274,-0.00226562470198,-1.0128223896,10.4919819832,,,,,0.34,-0.91,0.76,1.54219317436
0.0756644755602,-0.0196422245353,-1.02568519115,10.5239200592,,,,,0.29,-0.88,0.75,1.54363703728
0.0755304247141,-0.0257006194443,-1.03919661045,10.5275139809,,,,,0.11,-0.77,0.68,1.54422497749
0.0590542554855,-0.0213662069291,-1.05612230301,10.531111002,,,,,0.06,-0.75,0.65,1.54477119446
0.0502677932382,-0.0156512446702,-1.06488907337,10.5347421169,,,,,0.02,-0.74,0.62,1.54531598091
0.0405177697539,-0.0145716629922,-1.06807661057,10.5383410454,,,,,-0.01,-0.76,0.53,1.54586005211
0.0330391488969,-0.0133229661733,-1.05708384514,10.5735239983,,,,,-0.02,-0.77,0.47,1.54722309113
0.0334862545133,-0.00632594246417,-1.06384754181,10.5771210194,,,,,0.0,-0.79,0.35,1.54781103134
0.0402436740696,-0.0112525112927,-1.07364094257,10.5807201862,,,,,0.0,-0.79,0.35,1.54835510254
0.039343945682,-8.89953225851e-05,-1.09356749058,10.5843532085,,,,,0.03,-0.81,0.39,1.54890203476
0.0325360298157,0.019663920626,-1.09382665157,10.58791399,,,,,0.05,-0.84,0.4,1.54944801331
0.0189081206918,0.0321802943945,-1.08884775639,10.6229331493,,,,,0.1,-0.88,0.41,1.55081415176
0.00625099148601,0.0218330081552,-1.09530687332,10.6265311241,,,,,0.13,-0.91,0.4,1.55140304565
0.000498620909639,0.00732386112213,-1.11585354805,10.6301350594,,,,,0.14,-0.94,0.42,1.55193114281
-0.00800657086074,0.0116537678987,-1.13385820389,10.6337451935,,,,,0.15,-0.96,0.44,1.55247712135
-0.00612516514957,0.0155386906117,-1.14233899117,10.6373310089,,,,,0.2,-1.03,0.5,1.5530591011
0.00534658133984,0.0194128099829,-1.14036178589,10.6710860729,,,,,0.23,-1.08,0.53,1.55442500114
0.0215770602226,0.0220800619572,-1.13919019699,10.6747300625,,,,,0.37,-1.23,0.59,1.55501508713
0.0396772921085,0.0267235096544,-1.13313543797,10.6783101559,,,,,0.4,-1.27,0.61,1.55556201935
0.047439225018,0.0329283550382,-1.12706327438,10.6819040775,,,,,0.44,-1.33,0.65,1.55610704422
0.0438170880079,0.0278160814196,-1.11547780037,10.7137310505,,,,,0.45,-1.35,0.67,1.55665516853
0.0403394363821,0.0245926547796,-1.10700750351,10.7173240185,,,,,0.45,-1.36,0.71,1.5858399868
0.0283363908529,0.0242914725095,-1.1250128746,10.7208971977,,,,,0.44,-1.34,0.73,1.58642911911
0.019152874127,0.0212303232402,-1.13658511639,10.7245321274,,,,,0.43,-1.29,0.72,1.58697414398
0.0231555774808,0.0215386915952,-1.14224386215,10.7281081676,,,,,0.41,-1.25,0.72,1.5875210762
0.0254161152989,0.0161740351468,-1.13412737846,10.7630200386,,,,,0.36,-1.17,0.7,1.58806610107
0.0200835391879,0.0061060320586,-1.14120900631,10.766628027,,,,,0.32,-1.13,0.7,1.58945703506
0.0184625033289,0.0132838133723,-1.1497951746,10.7702260017,,,,,0.15,-0.99,0.71,1.59005117416
0.0234777964652,0.0239549074322,-1.14243721962,10.773859024,,,,,0.1,-0.95,0.73,1.59059500694
0.0268569327891,0.0313927531242,-1.13498234749,10.7774641514,,,,,0.03,-0.9,0.77,1.59114408493
0.0229715202004,0.027967819944,-1.14314568043,10.8130021095,,,,,0.02,-0.89,0.8,1.5916891098
0.0236928407103,0.020506972447,-1.14892292023,10.8166131973,,,,,0.06,-0.89,0.82,1.59310102463
0.0345699153841,0.0203753542155,-1.14905965328,10.8201951981,,,,,0.07,-0.91,0.83,1.59369421005
0.0356558226049,0.0153055917472,-1.1434057951,10.8238320351,,,,,0.1,-0.95,0.84,1.59423899651
0.019575599581,-0.00270089972764,-1.1468539238,10.8274350166,,,,,0.12,-0.97,0.86,1.59478712082
0.0073205716908,-0.00706202723086,-1.16552627087,10.8609280586,,,,,0.18,-1.0,0.88,1.59532999992
0.0107772629708,0.0227217245847,-1.16468381882,10.8645870686,,,,,0.21,-1.0,0.89,1.59669518471
0.0157026611269,0.0372183695436,-1.16782200336,10.8681840897,,,,,0.27,-0.99,0.85,1.59728503227
0.0187717676163,0.0251148510724,-1.15621459484,10.8717529774,,,,,0.28,-0.98,0.82,1.59783411026
0.0216025039554,0.0302317719907,-1.17509031296,10.9036450386,,,,,0.3,-0.95,0.82,1.5983850956
0.0261582601815,0.0303953383118,-1.19524431229,10.9072360992,,,,,0.31,-0.92,0.84,1.59893202782
0.0235501825809,0.0157842095941,-1.17228150368,10.9108271599,,,,,0.31,-0.88,0.88,1.6002972126
0.0289549455047,0.00910643488169,-1.15550708771,10.9144489765,,,,,0.28,-0.83,0.9,1.60088706017
0.0421692952514,0.0126623343676,-1.15164244175,10.9180409908,,,,,0.25,-0.81,0.9,1.60143113136
0.0454060435295,0.0131084788591,-1.18670392036,10.9533040524,,,,,0.24,-0.82,0.9,1.63218402863
0.0437689721584,0.0140148643404,-1.19249796867,10.9569180012,,,,,0.23,-0.85,0.95,1.63273215294
0.0398392342031,0.0100359525532,-1.18063831329,10.9604940414,,,,,0.21,-0.88,0.98,1.63415908813
0.0380617305636,-0.00221092998981,-1.18227112293,10.9641451836,,,,,0.07,-0.94,1.01,1.63474702835
0.0415959134698,0.0070689022541,-1.17838907242,10.967744112,,,,,0.0,-0.94,1.0,1.63529610634
0.0356487557292,0.0127742942423,-1.17807781696,11.0027182102,,,,,-0.15,-0.92,1.0,1.63584208488
0.0272869709879,0.00547264516354,-1.1878439188,11.0063800812,,,,,-0.22,-0.91,1.01,1.6363902092
0.0393093898892,0.00993557833135,-1.20769429207,11.0099720955,,,,,-0.26,-0.9,1.03,1.63775515556
0.0532773435116,0.0229970607907,-1.20059359074,11.0136110783,,,,,-0.3,-0.9,1.04,1.63835120201
0.0507988408208,0.0192148964852,-1.18149697781,11.0462641716,,,,,-0.3,-0.86,1.04,1.63887405396
0.050043027848,0.0236606728286,-1.18746113777,11.0498712063,,,,,-0.3,-0.83,1.04,1.63942217827
0.0522210635245,0.0404224321246,-1.18707132339,11.0535202026,,,,,-0.31,-0.8,1.06,1.63996720314
0.0364407896996,0.0374811217189,-1.18384099007,11.0571119785,,,,,-0.32,-0.76,1.09,1.64133214951
0.0209687575698,0.0212854389101,-1.18239319324,11.0607070923,,,,,-0.27,-0.76,1.08,1.64192318916
0.0216558333486,0.0278753470629,-1.17808222771,11.093706131,,,,,-0.24,-0.77,1.06,1.64246821404
0.0285891052336,0.0322638303041,-1.16785407066,11.0972981453,,,,,-0.23,-0.77,1.05,1.64305210114
0.0288341268897,0.0276981350034,-1.16139090061,11.1008980274,,,,,-0.24,-0.76,1.05,1.64359903336
0.0286914054304,0.0273670647293,-1.16451096535,11.1045291424,,,,,-0.26,-0.75,1.05,1.64491820335
0.0427853614092,0.0300553422421,-1.15693724155,11.1080880165,,,,,-0.29,-0.75,0.97,1.6455051899
0.047610193491,0.0320096611977,-1.1430798769,11.1432561874,,,,,-0.28,-0.76,0.93,1.64605617523
0.0407646596432,0.0291650500149,-1.1418825388,11.1468532085,,,,,-0.22,-0.78,0.83,1.64660215378
0.0382702946663,0.0237328130752,-1.17275762558,11.1504571438,,,,,-0.19,-0.8,0.79,1.64715313911
0.0379706434906,0.0198921803385,-1.19476544857,11.1540920734,,,,,-0.1,-0.85,0.71,1.64851713181
0.0420497730374,0.0207000095397,-1.20193636417,11.157692194,,,,,0.04,-0.98,0.62,1.68087315559
0.0454721972346,0.0289988238364,-1.19343578815,11.1926820278,,,,,0.1,-1.02,0.6,1.68142414093
0.0457589291036,0.0251991096884,-1.16964888573,11.1963310242,,,,,0.15,-1.06,0.58,1.6819691658
0.0443874001503,0.0197843182832,-1.15469169617,11.1999289989,,,,,0.23,-1.1,0.55,1.6825170517
0.0544473901391,0.0283342767507,-1.15997517109,11.2035620213,,,,,0.26,-1.11,0.54,1.68392920494
0.0639989301562,0.027779141441,-1.15211057663,11.2362091541,,,,,0.28,-1.06,0.56,1.68452000618
0.0689290091395,0.0288186911494,-1.14797282219,11.2398171425,,,,,0.27,-1.04,0.59,1.68506717682
0.0666175186634,0.0312481541187,-1.15757083893,11.2434401512,,,,,0.2,-0.98,0.65,1.68561506271
0.0577421486378,0.0231266822666,-1.17280781269,11.2470471859,,,,,0.16,-0.95,0.67,1.68616318703
0.0528104677796,0.009821170941,-1.1983191967,11.2506170273,,,,,0.08,-0.88,0.72,1.68752598763
0.051579579711,0.012657424435,-1.20598113537,11.2827560902,,,,,0.03,-0.83,0.75,1.68811416626
0.0441398918629,0.0230858717114,-1.21009814739,11.286386013,,,,,0.02,-0.8,0.77,1.68869304657
0.0392611920834,0.0366244390607,-1.20609128475,11.2899811268,,,,,0.03,-0.79,0.78,1.68923997879
0.05645699054,0.0443972870708,-1.20795476437,11.2936182022,,,,,0.05,-0.8,0.77,1.68978714943
0.0607670173049,0.0371117144823,-1.18508303165,11.2972130775,,,,,0.07,-0.8,0.76,1.69115018845
0.0602428540587,0.0304713044316,-1.18225324154,11.3381299973,,,,,0.18,-0.81,0.74,1.69173908234
0.0740343481302,0.0233321730047,-1.17877364159,11.3417241573,,,,,0.21,-0.79,0.76,1.69228506088
0.0811665207148,0.00700025260448,-1.17616522312,11.3453681469,,,,,0.25,-0.72,0.81,1.69286417961
0.0903613269329,0.0152345802635,-1.17506861687,11.3489661217,,,,,0.25,-0.67,0.84,1.69341421127
0.0764318630099,0.0262165237218,-1.18534016609,11.3525650501,,,,,0.23,-0.6,0.91,1.69478106499
0.069428153336,0.0106169674546,-1.17839670181,11.3879630566,,,,,0.2,-0.56,0.94,1.6953690052
0.0569801107049,0.019801074639,-1.16078484058,11.3915631771,,,,,0.21,-0.56,0.98,1.69591498375
0.044158115983,0.0349965244532,-1.16040098667,11.395209074,,,,,0.21,-0.55,1.0,1.69646000862
0.050993219018,0.0307294707745,-1.17078101635,11.3987979889,,,,,0.22,-0.56,1.04,1.69700503349
0.0602814778686,0.0137944910675,-1.18331933022,11.4311830997,,,,,0.21,-0.58,1.05,1.73001599312
0.0708036869764,0.015270197764,-1.20084178448,11.4352340698,,,,,0.22,-0.66,1.04,1.73060512543
0.0685986578465,0.0420491248369,-1.21553194523,11.43881917,,,,,0.23,-0.67,1.04,1.7311270237
0.0629948601127,0.041755631566,-1.20596146584,11.4424099922,,,,,0.26,-0.69,1.06,1.73167419434
0.0732887014747,0.0312080401927,-1.20043051243,11.4460430145,,,,,0.25,-0.69,1.07,1.73221898079
0.0724847018719,0.0250812005252,-1.17474687099,11.4778020382,,,,,0.17,-0.68,1.09,1.73364210129
0.0535409152508,0.0288766082376,-1.16606199741,11.4813740253,,,,,0.05,-0.67,1.1,1.73422908783
0.042819224298,0.0385849252343,-1.16186869144,11.4854280949,,,,,-0.04,-0.66,1.1,1.73477816582
0.0414196811616,0.037471242249,-1.15910661221,11.4890210629,,,,,-0.06,-0.66,1.09,1.73532319069
0.0464491918683,0.0225250888616,-1.14126908779,11.4926171303,,,,,-0.08,-0.65,1.07,1.73587107658
0.042426828295,0.0139065664262,-1.14490258694,11.5286200047,,,,,-0.12,-0.62,1.0,1.7372341156
0.053587988019,0.0217068400234,-1.11585772038,11.5322132111,,,,,-0.18,-0.57,0.87,1.73782205582
0.0587922334671,0.0185731370002,-1.06054461002,11.5358691216,,,,,-0.18,-0.57,0.84,1.73836708069
0.0524083226919,0.0315585359931,-1.01460015774,11.539484024,,,,,-0.17,-0.6,0.84,1.7389190197
0.0397506058216,0.055570833385,-0.974607765675,11.5431301594,,,,,-0.15,-0.61,0.86,1.73946404457
0.0359915010631,0.0532108023763,-0.920612812042,11.5776519775,,,,,-0.11,-0.63,0.9,1.74082708359
0.0390008166432,0.0273704659194,-0.884701907635,11.5812220573,,,,,-0.08,-0.62,0.94,1.74141812325
0.0487278774381,0.0269500706345,-0.862307727337,11.5848810673,,,,,-0.08,-0.65,0.97,1.74196815491
0.0584097579122,0.0403052717447,-0.845986187458,11.5884811878,,,,,-0.08,-0.67,1.0,1.74251413345
0.051659449935,0.0367244854569,-0.822674393654,11.6213710308,,,,,-0.08,-0.7,1.02,1.74309706688
0.0423257239163,0.0357076823711,-0.819559514523,11.6250400543,,,,,-0.04,-0.74,1.06,1.74446201324
0.0453915074468,0.0286214146763,-0.807198166847,11.6286370754,,,,,0.04,-0.75,1.06,1.74505209923
0.0475858449936,0.0258686188608,-0.798804819584,11.6322360039,,,,,0.06,-0.75,1.06,1.7455971241
0.048669449985,0.0175997372717,-0.800720632076,11.6358799934,,,,,0.09,-0.75,1.05,1.74614405632
0.0482670105994,0.01914996095,-0.793516516685,11.6681680679,,,,,0.15,-0.74,1.03,1.74668717384
0.0448735058308,0.0270638633519,-0.790084898472,11.6717741489,,,,,0.2,-0.73,1.0,1.77708101273
0.0466622114182,0.0273313503712,-0.794624328613,11.6754260063,,,,,0.22,-0.75,0.96,1.77767205238
