acc x,acc y,acc z,accTime,com x,com y,com z,comTime,gyro x,gyro y,gyro z,gyroTime
0.00296583399177,0.0437803044915,-1.13286697865,40.8591990471,,,,,-1.66,-3.43,0.03,40.8580532074
0.00116543669719,0.0645266324282,-1.12385118008,40.8617072105,,,,,-4.11,-3.17,-0.46,40.8584260941
-0.00646354071796,0.0625541806221,-1.12112057209,40.8642101288,,,,,-5.14,-1.86,-1.01,40.8587920666
-0.0127194598317,0.0402366667986,-1.11241400242,40.8666269779,,,,,-1.39,1.07,-1.84,40.8597230911
-0.0109350979328,0.0371778309345,-1.11326098442,40.8690330982,,,,,7.25,-0.61,-1.33,40.8601272106
-0.0115708783269,0.0337324291468,-1.1218547821,40.8714411259,,,,,6.29,-1.31,-0.89,40.8604941368
-0.00845642574131,0.0379993319511,-1.1216006279,40.8739221096,,,,,3.26,-1.3,-0.58,40.8608601093
0.00276583619416,0.0350491255522,-1.11520540714,40.8763329983,,,,,-4.68,0.0,-0.57,40.8612980843
0.00282330065966,0.0265838000923,-1.09509205818,40.8787322044,,,,,-6.78,0.45,-0.75,40.8622272015
0.004135414958,0.0439513102174,-1.102419734,40.8811471462,,,,,-1.39,0.35,-0.45,40.862621069
0.00536682829261,0.0468277037144,-1.11386680603,40.8835811615,,,,,1.27,0.84,-0.18,40.8630721569
0.0138082858175,0.0234363283962,-1.11137747765,40.8860161304,,,,,1.32,1.93,-0.2,40.8634440899
0.009755641222,0.0257587153465,-1.09813666344,40.8884282112,,,,,-1.39,1.85,-0.64,40.8638141155
-0.00715744681656,0.0573136880994,-1.10732865334,40.8908221722,,,,,-7.1,0.56,-1.98,40.8647282124
-0.00468218512833,0.0557805970311,-1.10641419888,40.8932759762,,,,,-2.02,2.76,-2.63,40.8651211262
-0.0121378339827,0.0312156137079,-1.11322200298,40.8956952095,,,,,2.92,4.16,-2.42,40.8654870987
-0.0140901729465,0.0421278700233,-1.11353385448,40.8981029987,,,,,7.07,4.73,-2.19,40.8658621311
-0.0121144987643,0.0568619966507,-1.11844050884,40.9005041122,,,,,8.16,2.34,-2.12,40.8662340641
-0.0156053155661,0.0411389023066,-1.10519587994,40.9029481411,,,,,4.84,0.58,-2.27,40.8671460152
-0.0087987408042,0.026889802888,-1.10957586765,40.9053490162,,,,,-3.07,1.68,-2.71,40.8675410748
-0.00196913443506,0.0266082007438,-1.13561832905,40.9077720642,,,,,-0.63,3.46,-2.65,40.8679070473
-0.00235624238849,0.0411312580109,-1.12927567959,40.9102110863,,,,,8.21,4.57,-2.41,40.8682711124
-0.00541338510811,0.0324327275157,-1.11790311337,40.9126050472,,,,,10.49,3.5,-2.39,40.868637085
-0.00537702254951,0.0362456589937,-1.12471199036,40.9150540829,,,,,5.56,1.34,-2.82,40.8695549965
-0.00365055352449,0.0599812939763,-1.13493716717,40.9174489975,,,,,-6878658.58,-19293798.4,-5536481.3,40.8699510098
-0.000238833832555,0.0457819998264,-1.14288759232,40.919878006,,,,,-3.01,3.57,-3.82,40.8703169823
-0.00408709608018,0.0162596125156,-1.15386962891,40.9222781658,,,,,0.67,3.37,-3.44,40.8706820011
-0.00157883937936,0.0451274365187,-1.14138448238,40.924710989,,,,,6.45,1.85,-2.36,40.87104702
0.00726721994579,0.0640517175198,-1.14316678047,40.9271070957,,,,,6.23,1.26,-2.02,40.8719570637
0.00359659083188,0.0254646893591,-1.14504635334,40.9295010567,,,,,-1.95,0.71,-2.08,40.8723871708
0.00442525185645,0.0142690595239,-1.14179158211,40.9319410324,,,,,-3.8,0.46,-2.12,40.8727521896
0.00259501859546,0.0461605414748,-1.11896061897,40.9343791008,,,,,-4.37,0.5,-1.88,40.8731601238
-0.00494976527989,0.0431202575564,-1.12147152424,40.9367740154,,,,,-3.78,1.17,-1.75,40.8735260963
0.00160742003936,0.0168771985918,-1.11316931248,40.9391651154,,,,,-1.69,2.78,-1.7,40.8744390011
-0.000247990596108,0.0131686311215,-1.09843635559,40.9415850639,,,,,-1.31,2.73,-1.91,40.8748321533
-0.00139615673106,0.0297056715935,-1.09031093121,40.9440481663,,,,,-5.79,2.08,-2.28,40.8752031326
-0.00409386307001,0.03346593678,-1.0930711031,40.9464449883,,,,,-9.35,2.7,-2.61,40.8755741119
-0.00483322329819,0.0333507731557,-1.09457802773,40.9488320351,,,,,-12.13,5.52,-3.54,40.8759381771
-0.00647814944386,0.0309459660202,-1.11288106441,40.951225996,,,,,-9.62,6.5,-3.78,40.8768451214
-0.00166357855778,0.0380284711719,-1.11949324608,40.9537081718,,,,,1.96,4.15,-2.47,40.8772380352
0.00166885566432,0.0452035963535,-1.11774563789,40.9561271667,,,,,0.92,3.11,-1.76,40.8776040077
-0.00474653020501,0.043373323977,-1.10692036152,40.9585289955,,,,,-8.65,3.15,-1.19,40.8779690266
-0.00472239218652,0.0403905361891,-1.10617268085,40.9609270096,,,,,-12.71,3.72,-1.32,40.8783361912
-0.00376378744841,0.0352198332548,-1.09801542759,40.9633581638,,,,,-11.02,3.46,-1.15,40.8792471886
-0.00850236788392,0.0443813726306,-1.09093499184,40.9657800198,,,,,-2.75,1.54,0.28,40.8796420097
-0.0149309448898,0.0357784330845,-1.10817694664,40.9681720734,,,,,-4.68,0.53,1.43,40.8800070286
-0.0150623880327,0.0153577681631,-1.12224197388,40.970566988,,,,,-10.0,0.3,1.29,40.8803801537
-0.00161929044407,0.0113430526108,-1.1107262373,40.9730181694,,,,,-15.69,-0.2,0.78,40.8807520866
-0.00341832451522,0.021997326985,-1.09237635136,40.9754190445,,,,,-19.89,-2.23,-0.13,40.8816649914
0.000175675493665,0.0156837124377,-1.09801101685,40.9778470993,,,,,-11.48,-2.75,0.63,40.8820581436
0.00131547090132,0.0408442467451,-1.116543293,40.980243206,,,,,-10.26,-1.92,0.81,40.8824241161
-0.00414024107158,0.0626282989979,-1.13922953606,40.9826381207,,,,,-12.36,-2.32,0.38,40.8828110695
0.00443328917027,0.0194033253938,-1.13263356686,40.9850590229,,,,,-13.91,-3.84,0.1,40.8831870556
-0.000931227463298,0.000601693987846,-1.11372756958,40.9874670506,,,,,-14.54,-6.51,0.26,40.8841280937
-0.00129633012693,0.0401219576597,-1.10156440735,40.9898881912,,,,,-13.12,-4.75,0.93,40.8845231533
-0.00548582710326,0.0572757571936,-1.09410703182,40.9922840595,,,,,-9.96,-1.82,0.27,40.8848891258
0.000858686980791,0.0387371778488,-1.09029591084,40.9947121143,,,,,-7.64,-2.16,-0.41,40.8852519989
0.0046955794096,0.0217842552811,-1.08611965179,40.9971101284,,,,,-5.24,-3.61,-1.04,40.8856191635
0.00513162463903,0.0268239770085,-1.08020961285,40.99954319,,,,,-3.57,-6.42,-1.4,40.8865430355
0.00367833860219,0.0192795377225,-1.08143007755,41.0019462109,,,,,-11.3,-2.65,-1.94,40.8869411945
-0.000697532552294,0.0236651170999,-1.07903146744,41.0043921471,,,,,-12.27,-1.66,-2.65,40.8873062134
-0.00685687549412,0.0350587889552,-1.08792173862,41.0067911148,,,,,-10.68,-1.93,-3.27,40.8876709938
-0.0137449614704,0.0385257005692,-1.1136276722,41.0092082024,,,,,-3.3,-5.01,-3.24,40.888035059
-0.0133415944874,0.0383226275444,-1.11603701115,41.0116322041,,,,,-1.33,-5.99,-2.46,40.888944149
-0.0122127905488,0.0475450083613,-1.11514127254,41.014067173,,,,,-12.65,-3.77,-0.63,40.8893370628
0.000622091931291,0.0461811125278,-1.11640870571,41.0164661407,,,,,-19.49,-3.99,-0.82,40.889701128
0.00797025673091,0.0349730327725,-1.10624086857,41.0188651085,,,,,-18.13,-5.09,-0.71,40.8900661469
0.00200160220265,0.0393883660436,-1.09353208542,41.0212640762,,,,,-14.41,-5.95,-0.23,40.8904290199
0.00131687533576,0.0476053953171,-1.10344231129,41.0237162113,,,,,-8.29,-3.91,1.56,40.8913400173
-0.00757540762424,0.0525435581803,-1.11209344864,41.0261070728,,,,,-15.75,-3.6,1.06,40.8917341232
-0.0102629028261,0.0501739382744,-1.11793768406,41.0285041332,,,,,-19.14,-4.52,0.57,40.8920969963
-0.0217540077865,0.0340445935726,-1.12066340446,41.0309240818,,,,,-20.28,-5.46,0.28,40.8924620152
-0.0255998857319,0.029072554782,-1.11134815216,41.0333790779,,,,,-15.24,-4.55,0.56,40.8928730488
-0.0297595057636,0.0374425575137,-1.09576880932,41.0357861519,,,,,-10.96,-2.92,0.8,40.8937871456
-0.0421216487885,0.0342400372028,-1.09068453312,41.038184166,,,,,-6.23,-1.86,0.49,40.8941800594
-0.0470803827047,0.047796048224,-1.0983761549,41.0405721664,,,,,-8.14,-3.33,0.29,40.8945441246
-0.0691324397922,0.0464729890227,-1.09478330612,41.0429940224,,,,,-12.43,-4.92,0.43,40.8949091434
-0.0797528252006,0.0374551564455,-1.09205746651,41.0454201698,,,,,-12.85,-4.11,0.62,40.895275116
-0.0923298448324,0.0419506803155,-1.07684087753,41.0478191376,,,,,-8.55,-1.76,0.8,40.8962130547
-0.100351147354,0.0422084480524,-1.05691552162,41.0502181053,,,,,-1.5,-2.37,0.91,40.8966071606
-0.0999531596899,0.0285879801959,-1.05133056641,41.0526101589,,,,,-0.39,-4.48,1.19,40.8969731331
-0.1011999771,0.0302957836539,-1.05317306519,41.055049181,,,,,-2.81,-4.55,1.24,40.8973371983
0.00783519633114,0.0512786284089,-1.08943545818,41.0567100048,,,,,-9.63,-2.93,0.73,40.8977000713
0.0192491244525,0.0520006269217,-1.09135127068,41.0591061115,,,,,-11.39,-2.18,0.34,40.898622036
0.0224193520844,0.0462947785854,-1.09161281586,41.0615060329,,,,,-5.39,-2.21,0.6,40.8990180492
0.0146364420652,0.0448789224029,-1.09678196907,41.063945055,,,,,-2.82,-2.09,1.27,40.8993811607
0.0146735776216,0.0473458170891,-1.10240209103,41.0663511753,,,,,-3.55,-1.56,2.33,40.8997461796
0.0127650350332,0.043210208416,-1.11440432072,41.0690970421,,,,,-7.03,-1.62,2.36,40.9001100063
0.00490510836244,0.0460677370429,-1.11908233166,41.0715031624,,,,,-13.93,-2.36,1.62,40.9010272026
-0.0020333584398,0.0617392659187,-1.14422678947,41.0739371777,,,,,-13.15,-1.9,1.49,40.9014260769
0.000997569528408,0.068678714335,-1.16111052036,41.0763361454,,,,,-5.08,0.1,2.23,40.9017930031
0.00884572695941,0.0629273056984,-1.15478491783,41.0787360668,,,,,-1.85,0.34,2.51,40.902159214
-0.00317182019353,0.0609021037817,-1.15724980831,41.0811550617,,,,,-2.52,-1.64,2.0,40.9025239944
-0.0120804496109,0.056409984827,-1.16343057156,41.0835931301,,,,,-5.98,-2.74,1.24,40.9034671783
-0.000804416718893,0.0453158989549,-1.15735578537,41.085996151,,,,,-11.3,0.88,-0.85,40.9038600922
0.00100665923674,0.0408894345164,-1.14939463139,41.0883951187,,,,,-7.94,3.11,-1.11,40.9042241573
-0.000723270582967,0.0519535467029,-1.15470480919,41.0908122063,,,,,1.52,4.11,-1.16,40.9045901299
0.0138980206102,0.0541761368513,-1.16940808296,41.0932421684,,,,,3.9,2.7,-1.2,40.904954195
0.00904194545001,0.043772533536,-1.17359304428,41.095646143,,,,,-0.4,0.55,-1.56,40.9058670998
-0.0062736812979,0.0485060587525,-1.15955197811,41.098044157,,,,,-7.74,3.09,-2.16,40.9062612057
-0.0142392329872,0.0593801885843,-1.14761972427,41.1004390717,,,,,-6.32,6.26,-2.2,40.9066231251
-0.00900375470519,0.0427751913667,-1.12250804901,41.1028900146,,,,,-2.41,6.27,-1.95,40.9070119858
-0.0110806114972,0.020944846794,-1.11896181107,41.1052911282,,,,,3.26,4.18,-1.14,40.9073760509
-0.0117437429726,0.0416589900851,-1.11808669567,41.1076900959,,,,,2.82,3.6,-0.83,40.9082891941
0.00574469566345,0.0556819736958,-1.12245488167,41.1100890636,,,,,-5.98,6.1,-0.67,40.9086811543
0.0156956072897,0.0296333488077,-1.11116492748,41.1124889851,,,,,-7.89,6.83,-0.68,40.909044981
0.0362970493734,0.0303891208023,-1.09547495842,41.148348093,,,,,-7.94,6.77,-0.4,40.9094400406
0.0586438700557,0.0508652627468,-1.04719769955,41.1507601738,,,,,-6.74,6.7,-0.1,40.9098160267
0.0741041973233,0.0432069450617,-1.0192745924,41.1531991959,,,,,-3.25,7.45,0.58,40.9107251167
0.0839732140303,0.027764769271,-0.988880157471,41.1555981636,,,,,-1.71,8.21,0.95,40.9111180305
0.0841387808323,0.0248719584197,-0.982744812965,41.1579999924,,,,,-5.22,7.44,0.32,40.9114840031
0.0696661695838,0.0280479695648,-0.991254806519,41.19592309,,,,,-8.06,7.24,-0.44,40.9118471146
0.0502890944481,0.0410658195615,-1.01265609264,41.1983251572,,,,,-9.8,7.61,-1.39,40.9122121334
0.0447839908302,0.0325981974602,-1.03183376789,41.2007231712,,,,,-6.62,9.66,-2.8,40.9131700993
0.0475290492177,0.0443209558725,-1.03582274914,41.2031600475,,,,,4.41,9.42,-2.37,40.9135661125
0.0306012444198,0.0462839007378,-1.03148889542,41.2392241955,,,,,3.27,8.48,-2.1,40.9139301777
-0.00139804917853,0.021136874333,-1.03378796577,41.2416250706,,,,,-0.68,7.87,-2.13,40.9142940044
-0.0222491919994,0.0153526421636,-1.04084801674,41.244063139,,,,,-8.84,8.82,-2.72,40.914659977
-0.0501822084188,0.0144915971905,-1.02716934681,41.2464601994,,,,,-9.37,10.0,-2.65,40.9155700207
-0.0577528774738,0.0187128353864,-1.00200283527,41.2488591671,,,,,0.46,10.97,0.89,40.9159619808
-0.0365048646927,0.0182303506881,-1.01349258423,41.2887740135,,,,,-1.77,9.62,3.44,40.9163269997
-0.0339920967817,0.0239118877798,-1.02732765675,41.2911682129,,,,,-6.55,9.09,3.79,40.9166920185
-0.0409058853984,0.0372296050191,-1.03282392025,41.2936031818,,,,,-11.3,8.93,3.56,40.91705513
-0.0364708602428,0.0446246787906,-1.03735280037,41.2959971428,,,,,-14.53,9.49,2.48,40.9179611206
-0.0345242321491,0.0332849696279,-1.039321661,41.2983961105,,,,,-7.63,11.65,1.67,40.9183700085
-0.0363429263234,0.0385051295161,-1.04250979424,41.3378000259,,,,,-5.83,11.98,1.14,40.9187340736
-0.020570602268,0.0430424809456,-1.06422436237,41.340211153,,,,,-4.95,11.79,0.33,40.9191110134
-0.00859192945063,0.0396504551172,-1.0646545887,41.3426129818,,,,,-4.71,9.81,-1.72,40.9194800854
-0.0170922465622,0.0365548506379,-1.06338858604,41.345053196,,,,,-5.0,8.77,-2.54,40.9203960896
-0.0174974016845,0.0369529128075,-1.08301818371,41.3474500179,,,,,-5.43,10.2,-3.88,40.9207901955
-0.0069592166692,0.0511704459786,-1.0839111805,41.3846821785,,,,,-3.59,11.46,-4.17,40.9211552143
-0.0117508023977,0.0513727813959,-1.08832669258,41.3870820999,,,,,3.52,11.48,-4.3,40.9215190411
-0.0127616040409,0.0434388443828,-1.09174454212,41.3894782066,,,,,6.58,9.84,-3.92,40.9218840599
0.00646251812577,0.0387686863542,-1.08873915672,41.3918821812,,,,,5.39,6.32,-2.44,40.9228219986
0.000293601420708,0.0344596132636,-1.07393288612,41.42912817,,,,,-3.43,6.01,-1.65,40.9232211113
-0.00883361324668,0.0256321784109,-1.0667655468,41.4315321445,,,,,-5.76,7.32,-1.66,40.9235870838
-0.00300763361156,0.0315701961517,-1.08209490776,41.4339871407,,,,,-2.38,7.07,-1.46,40.9239521027
3.0975905247e-05,0.0483402833343,-1.0897783041,41.4363811016,,,,,5.41,4.89,0.01,40.9243171215
-0.00361221469939,0.0519608482718,-1.08866965771,41.4387760162,,,,,5.59,3.88,0.81,40.9252262115
0.000334719312377,0.0538730919361,-1.08791220188,41.4783229828,,,,,-8.54,3.72,0.82,40.9256219864
-0.000575534882955,0.0487126111984,-1.07905232906,41.4807231426,,,,,-11.63,3.85,0.26,40.9259870052
-0.00290142372251,0.0405780896544,-1.06120193005,41.4831562042,,,,,-9.38,3.63,-0.02,40.9263510704
0.00277885422111,0.0390559509397,-1.06837296486,41.4855570793,,,,,-5.99,3.62,0.29,40.9267151356
-0.00125702645164,0.0368379801512,-1.07499432564,41.487953186,,,,,-2.01,4.07,0.92,40.9276201725
-0.00192980829161,0.0304008368403,-1.07670247555,41.5280301571,,,,,-4.93,3.42,0.74,40.9280130863
0.00105504330713,0.024093227461,-1.07677078247,41.530424118,,,,,-9.2,1.21,0.34,40.9283761978
0.00282211601734,0.0219414290041,-1.069835186,41.5328559875,,,,,-9.8,0.52,0.4,40.9287409782
0.00561093725264,0.0249034706503,-1.06209945679,41.5352520943,,,,,-5.95,1.29,0.8,40.9291059971
0.000330601003952,0.031956680119,-1.06125760078,41.572081089,,,,,-1.91,2.03,1.03,40.9300551414
0.0019080491038,0.0455396920443,-1.06968128681,41.5745279789,,,,,6.59,-0.26,1.77,40.9304552078
0.0076717659831,0.0409508123994,-1.07508254051,41.5769221783,,,,,5.03,-1.83,2.01,40.9308199883
-0.000228427234106,0.0367021933198,-1.10821950436,41.5793170929,,,,,-3.01,-2.36,2.01,40.9311840534
-0.00802882760763,0.0440797507763,-1.12108266354,41.5817041397,,,,,-6.11,-1.13,1.73,40.9315471649
-0.00360628962517,0.0385974347591,-1.12574207783,41.6198751926,,,,,-3.58,1.37,1.38,40.9324581623
-0.00587303563952,0.0348032414913,-1.11686456203,41.6223080158,,,,,5.07,0.7,2.18,40.93288517
-0.00101717549842,0.0463689640164,-1.12474906445,41.6247429848,,,,,4.64,-1.03,3.17,40.9332530499
-0.000451914849691,0.0512591674924,-1.12189698219,41.6271400452,,,,,-0.34,-1.16,3.17,40.9336211681
-0.00238382443786,0.0528979301453,-1.11610245705,41.6295371056,,,,,-10.64,-0.41,2.17,40.9339849949
0.00346480496228,0.0465053543448,-1.1123675108,41.668815136,,,,,-11.88,-0.36,1.73,40.9348921776
0.0025085285306,0.0347875058651,-1.10563492775,41.6712150574,,,,,-0.47,-1.94,2.51,40.9352850914
0.0026738718152,0.0299637261778,-1.10197281837,41.6736500263,,,,,2.2,-2.3,2.97,40.9356491566
0.00593759678304,0.0314696207643,-1.11792397499,41.6760430336,,,,,-0.72,-2.72,2.82,40.9360141754
7.31499167159e-05,0.0389665290713,-1.12288844585,41.6784391403,,,,,-4.77,-3.22,2.25,40.9363780022
-0.0105733685195,0.0433805212379,-1.13406038284,41.7174870968,,,,,-10.0,-4.36,1.22,40.9372870922
-0.0208756811917,0.0466068834066,-1.1533946991,41.7198870182,,,,,-6.24,-3.46,1.25,40.937680006
-0.00342191942036,0.0470113381743,-1.14828181267,41.7222831249,,,,,1.81,-0.97,1.69,40.9380431175
0.00240533053875,0.0409628003836,-1.13568043709,41.7247130871,,,,,4.4,-0.66,1.72,40.9384071827
-0.00392967090011,0.0422263815999,-1.14065015316,41.7622520924,,,,,4.84,-1.36,1.59,40.9387722015
-0.00560491532087,0.0543927848339,-1.14976167679,41.7646892071,,,,,0.29,-3.74,1.04,40.9396810532
-0.0114714801311,0.0516723766923,-1.13805317879,41.7670850754,,,,,-4.33,-1.34,0.79,40.9400742054
-0.0159158818424,0.0366109013557,-1.12515640259,41.7694790363,,,,,-1.56,0.12,0.91,40.9404380322
-0.0157076306641,0.0351844578981,-1.12307476997,41.7718691826,,,,,2.82,0.56,1.09,40.9408020973
-0.0146809145808,0.0452932864428,-1.12434589863,41.8086211681,,,,,10.37,-1.92,1.14,40.9411671162
-0.0150118656456,0.0415067896247,-1.13199150562,41.8110361099,,,,,7.76,-3.94,0.45,40.9421181679
-0.0118856914341,0.0442011058331,-1.15454018116,41.8134810925,,,,,-1.78,-1.4,-0.35,40.9425210953
-0.0222267396748,0.0481757521629,-1.15384435654,41.8159110546,,,,,-4.73,1.53,-0.39,40.9429171085
-0.0281241126359,0.0579294636846,-1.13987803459,41.8183062077,,,,,-1.65,1.61,-0.11,40.9432830811
-0.0112052373588,0.0554815530777,-1.13301205635,41.8593192101,,,,,3.06,0.91,0.14,40.9436490536
-0.0133146420121,0.0434743314981,-1.12005376816,41.8617181778,,,,,8.98,-0.13,0.17,40.9445631504
-0.0271724574268,0.0447468832135,-1.11284661293,41.86414814,,,,,-3.17,0.92,-0.87,40.9449560642
-0.024529222399,0.0419979915023,-1.11613690853,41.8665430546,,,,,-7.84,0.72,-0.97,40.9453191757
-0.0250111930072,0.0475018769503,-1.13524091244,41.8689410686,,,,,-9.43,0.11,-0.79,40.9456841946
-0.0343375205994,0.0531824231148,-1.12874126434,41.9079511166,,,,,-2.49,-0.72,0.16,40.9460470676
-0.0374958664179,0.0692547410727,-1.10883629322,41.9103541374,,,,,3.29,-0.51,0.6,40.9469640255
-0.030953342095,0.0670376121998,-1.10496890545,41.9127531052,,,,,8.36,-0.38,0.74,40.9473161697
-0.0341361165047,0.0477624312043,-1.09667861462,41.9151961803,,,,,0.86,-2.59,0.0,40.9477081299
-0.0347019359469,0.0391798615456,-1.09663593769,41.9505782127,,,,,-6.53,-4.08,-0.33,40.9480721951
-0.0304738599807,0.0348615720868,-1.09749519825,41.9530260563,,,,,-5.97,-3.17,0.01,40.9484381676
-0.0241329334676,0.0432088077068,-1.09205806255,41.9554240704,,,,,7.1,1.34,2.03,40.9493441582
-0.0175089426339,0.0502168536186,-1.08214759827,41.9578220844,,,,,8.24,-0.74,2.2,40.9497401714
-0.0276919566095,0.041829623282,-1.08532655239,41.9602160454,,,,,4.94,-2.43,1.85,40.9501051903
-0.0330688133836,0.0482208430767,-1.08376097679,41.9983370304,,,,,0.84,-3.25,1.46,40.9504680634
-0.0352054461837,0.0583787336946,-1.06666350365,42.0007309914,,,,,-3.59,-1.19,1.28,40.9508330822
-0.0361454337835,0.0520902276039,-1.06125450134,42.0031599998,,,,,-2.32,0.59,1.59,40.9517409801
-0.032188244164,0.0426865071058,-1.05717778206,42.0055611134,,,,,9.39,-0.31,2.41,40.9521360397
-0.0428513064981,0.0547350868583,-1.05624115467,42.0079569817,,,,,11.54,-2.0,2.23,40.9525001049
-0.0453630387783,0.0670167654753,-1.06154847145,42.0486080647,,,,,9.36,-3.19,1.26,40.9529421329
-0.0411996692419,0.0611806586385,-1.05949187279,42.0510041714,,,,,5.78,-2.41,0.68,40.9533121586
-0.0325771346688,0.0522043257952,-1.02835834026,42.0534720421,,,,,-0.27,-0.83,-0.23,40.9542241096
-0.0380123630166,0.0266205500811,-1.0088070631,42.0558760166,,,,,2.03,-1.29,-0.28,40.9546170235
-0.0510261803865,0.0251768846065,-1.00931096077,42.058273077,,,,,9.29,-1.72,0.02,40.954982996
-0.0453715622425,0.0433057621121,-1.01370644569,42.0971360207,,,,,10.89,-1.51,-0.06,40.9553589821
-0.0341306626797,0.041186966002,-1.02017116547,42.0995440483,,,,,5.29,-1.87,-1.15,40.9557321072
-0.02693291381,0.0443195328116,-1.03554856777,42.1019420624,,,,,-0.09,-2.79,-1.92,40.956646204
-0.0316708311439,0.0537240058184,-1.02990436554,42.104391098,,,,,-4.75,-3.92,-1.89,40.9570381641
-0.0260054469109,0.050897218287,-1.04559266567,42.1406340599,,,,,-0.37,-2.81,-1.06,40.957403183
-0.0122879035771,0.0395596399903,-1.06390750408,42.1430711746,,,,,8.51,-0.93,0.0,40.9577720165
-0.0131953470409,0.038094073534,-1.06441760063,42.1454670429,,,,,9.29,-1.49,-0.24,40.9581360817
-0.0142788663507,0.0573977082968,-1.04564392567,42.1478631496,,,,,2.62,-4.33,-1.48,40.9590451717
-0.0146278887987,0.0691589862108,-1.06185793877,42.1502571106,,,,,-3.42,-4.37,-1.41,40.9594380856
-0.0108207166195,0.0641558617353,-1.07291269302,42.1891191006,,,,,1.19,-0.59,0.53,40.9598031044
-0.0133640542626,0.0571065098047,-1.07907402515,42.1915240288,,,,,6.23,0.6,1.37,40.9601690769
-0.0129992961884,0.0615588948131,-1.08020889759,42.1939520836,,,,,12.83,-0.69,1.64,40.9605331421
-0.0106871835887,0.0686640888453,-1.07571911812,42.1963500977,,,,,12.19,-2.28,1.2,40.9614441395
-0.0103790275753,0.0657391920686,-1.0465170145,42.1987481117,,,,,2.11,-2.48,0.38,40.9618370533
-0.0148249641061,0.0506846830249,-1.04084086418,42.2379050255,,,,,0.69,-1.34,0.58,40.9622001648
-0.0214394330978,0.0322807729244,-1.03907608986,42.2403011322,,,,,4.65,-0.77,1.2,40.9625639915
-0.0170997902751,0.0436826348305,-1.02732992172,42.2426960468,,,,,8.26,-1.55,1.44,40.9629600048
4.13811005719e+14,6.00556580342e+31,-4.95038774791e-24,42.2451272011,,,,,12.1,-3.22,1.74,40.9638681412
-0.000619282829575,0.0537993982434,-1.02162909508,42.2478291988,,,,,7.88,-3.16,1.73,40.9642870426
0.00776391196996,0.0367716997862,-1.0182248354,42.2860481739,,,,,0.42,-2.97,1.28,40.9646542072
-0.0134418420494,0.0380729213357,-1.0104777813,42.2884449959,,,,,-1.52,-3.04,1.04,40.9650189877
-0.0189361162484,0.0520899817348,-1.00430572033,42.2908401489,,,,,-1.3,-2.94,0.94,40.9653830528
-0.00662225857377,0.0569068342447,-0.995790600777,42.2932751179,,,,,4.43,-1.63,1.39,40.9662911892
-0.0107219964266,0.0472920015454,-0.994133114815,42.3292071819,,,,,10.07,-1.46,1.85,40.966684103
-0.00626234896481,0.0413777902722,-1.01324510574,42.3316090107,,,,,7.59,-2.39,1.43,40.9670491219
-0.0135026872158,0.0510279685259,-1.02302145958,42.334043026,,,,,0.11,-2.88,0.19,40.9674141407
-0.0149261169136,0.0526898801327,-1.02565920353,42.33644104,,,,,-1.62,-1.55,-0.18,40.9677801132
-0.00506416149437,0.0560312122107,-1.03644907475,42.3388371468,,,,,-0.37,0.42,-0.27,40.9686830044
-0.00720338895917,0.0550561025739,-1.04045629501,42.3781809807,,,,,13.75,2.12,0.51,40.9690752029
-0.0170237645507,0.0369212180376,-1.03471314907,42.3805730343,,,,,13.73,-0.78,0.32,40.9694390297
-0.0189900621772,0.0455554202199,-1.03310453892,42.3830041885,,,,,9.17,-1.2,-0.01,40.9698040485
-0.00774602591991,0.0639864206314,-1.03638005257,42.3854022026,,,,,4.05,-0.3,-0.33,40.97016716
-0.00341759994626,0.0619891509414,-1.02156543732,42.3878180981,,,,,0.85,3.62,-0.33,40.9710941315
-0.0097182393074,0.0468171983957,-1.01704001427,42.4283151627,,,,,14.06,4.85,0.73,40.9714970589
-0.0139513537288,0.0395737439394,-1.02874207497,42.4307160378,,,,,15.77,4.23,0.77,40.971861124
-0.011902295053,0.047699727118,-1.02885067463,42.4331440926,,,,,14.07,4.06,0.53,40.9722251892
-0.01229827106,0.0516002327204,-1.02894639969,42.4355430603,,,,,5.66,5.53,-0.34,40.972589016
-0.0134385898709,0.0588632524014,-1.02802824974,42.4379410744,,,,,2.69,6.58,-0.66,40.9735400677
-0.0185346975923,0.0637356862426,-1.02403497696,42.4758160114,,,,,6.55,7.57,-0.34,40.9739329815
-0.0289639979601,0.0630348920822,-1.02508807182,42.4782149792,,,,,9.07,7.62,-0.09,40.9742980003
-0.0168033242226,0.0524850040674,-1.05115675926,42.4806129932,,,,,10.97,7.95,0.15,40.9746620655
-0.00881343707442,0.038619980216,-1.06114697456,42.4830491543,,,,,10.42,7.86,0.21,40.9750270844
-0.0144613608718,0.0530258566141,-1.06524634361,42.5192110538,,,,,7.64,6.5,0.24,40.975965023
-0.0173048228025,0.0608350783587,-1.06429970264,42.5216090679,,,,,4.06,6.35,-0.95,40.9763581753
-0.0181101746857,0.0450612083077,-1.07710397243,42.5240421295,,,,,5.22,7.47,-1.7,40.9767241478
-0.0190068557858,0.0348739102483,-1.05617129803,42.5264391899,,,,,8.01,8.51,-2.36,40.977088213
-0.0217713490129,0.0429280400276,-1.05142354965,42.5288341045,,,,,15.19,8.28,-2.99,40.9774541855
-0.014708083123,0.0621284395456,-1.04826498032,42.568803072,,,,,16.7,7.14,-3.03,40.9783620834
-0.0151646956801,0.0499504730105,-1.04504823685,42.5712001324,,,,,7.62,6.17,-4.27,40.9787549973
-0.020696233958,0.0426499918103,-1.05055129528,42.5736351013,,,,,5.13,7.39,-4.99,40.9791200161
-0.0255001112819,0.0502893552184,-1.05822086334,42.5760300159,,,,,8.93,9.38,-5.17,40.9794840813
-0.0281505919993,0.0508646294475,-1.04300916195,42.5784261227,,,,,13.41,9.13,-4.22,40.9798491001
-0.0236932560802,0.0467891544104,-1.02140128613,42.618885994,,,,,16.22,6.91,-1.24,40.9807569981
-0.0253501236439,0.0438315570354,-1.01954078674,42.6212871075,,,,,5.71,5.34,0.54,40.9811501503
-0.0318687111139,0.04479046911,-1.00850093365,42.6237270832,,,,,-4.15,5.87,0.52,40.9815170765
-0.0373995900154,0.048208296299,-1.01729619503,42.6261219978,,,,,-4.56,6.4,0.53,40.981880188
-0.0342331677675,0.0428824797273,-1.02537620068,42.6285221577,,,,,0.94,7.21,1.46,40.9822440147
-0.0268875025213,0.0452139154077,-1.03750085831,42.66588521,,,,,3.55,7.46,1.95,40.9831790924
-0.0328474864364,0.0540701299906,-1.03461706638,42.6682841778,,,,,0.76,6.91,1.42,40.9835720062
-0.0283778719604,0.0478364303708,-1.04017233849,42.6706790924,,,,,-1.23,6.34,0.68,40.9839370251
-0.0238951258361,0.0368574783206,-1.03903472424,42.6731071472,,,,,-1.38,6.1,-0.28,40.9843010902
-0.0261244177818,0.0348142907023,-1.03587567806,42.7093551159,,,,,0.77,6.96,-0.41,40.9846651554
-0.0269437879324,0.0477438569069,-1.03502655029,42.7117590904,,,,,8.28,9.59,-0.52,40.9855701923
-0.0331349223852,0.0672722682357,-1.0439504385,42.7141940594,,,,,15.32,9.67,-0.75,40.9859611988
-0.0356067270041,0.0663490146399,-1.03313076496,42.7165892124,,,,,15.84,6.39,-0.7,40.9863250256
-0.025064766407,0.0545854270458,-1.03196382523,42.7190001011,,,,,13.28,5.2,-0.51,40.9866890907
-0.0243664979935,0.0409473255277,-1.03606319427,42.7583220005,,,,,7.35,6.13,-0.35,40.9870531559
-0.0343539640307,0.038004219532,-1.02998709679,42.7607171535,,,,,6.99,7.63,-0.46,40.9879829884
-0.0316236242652,0.0421705767512,-1.02405977249,42.7631680965,,,,,16.93,7.68,-0.83,40.9883890152
-0.0254188999534,0.0540892109275,-1.03715467453,42.7655761242,,,,,18.6,6.13,-0.75,40.9887640476
-0.0242969989777,0.0684607625008,-1.04174077511,42.7679741383,,,,,12.61,4.23,-0.62,40.9891271591
-0.0292131155729,0.0539907887578,-1.04650461674,42.8082439899,,,,,7.13,4.55,-0.72,40.9894931316
-0.0336604565382,0.0492869764566,-1.057543993,42.8106381893,,,,,1.94,5.75,-1.0,40.990404129
-0.0351101979613,0.0576984658837,-1.05131077766,42.8130731583,,,,,9.02,4.67,-0.7,40.9907951355
-0.0390392392874,0.057787463069,-1.02769112587,42.8154699802,,,,,16.24,2.67,0.03,40.991161108
-0.038746535778,0.0468382611871,-1.03096413612,42.852227211,,,,,15.49,2.22,0.34,40.9915251732
-0.0333111807704,0.0362168699503,-1.03765237331,42.8546750546,,,,,6.89,2.02,0.57,40.9918911457
-0.0359497368336,0.0413186475635,-1.0493298769,42.8570711613,,,,,2.66,1.64,0.58,40.9928250313
-0.0284679755569,0.0534161105752,-1.06250691414,42.8594679832,,,,,4.43,0.83,0.78,40.993224144
-0.0217236243188,0.0657613500953,-1.06322324276,42.86186409,,,,,8.06,1.65,0.84,40.9935891628
-0.0247257463634,0.0620251595974,-1.04479539394,42.8982920647,,,,,11.86,3.63,0.71,40.9939551353
-0.0260397866368,0.0427014529705,-1.04042887688,42.9006891251,,,,,10.44,3.62,0.5,40.9943192005
-0.0213120914996,0.0322814360261,-1.04488348961,42.9031181335,,,,,3.68,1.76,-0.2,40.9952290058
-0.0282502658665,0.0502430722117,-1.03853690624,42.9055161476,,,,,-0.04,1.88,-1.16,40.9956231117
-0.0249685943127,0.0609327107668,-1.06068205833,42.9079151154,,,,,5.27,5.5,-1.7,40.9959859848
-0.0142305418849,0.0372337624431,-1.0801898241,42.948841095,,,,,9.86,6.68,-1.62,40.9963521957
-0.0194383859634,0.0344806239009,-1.08112931252,42.9512431622,,,,,13.68,6.39,-1.32,40.9967160225
-0.0204934477806,0.068922996521,-1.05405724049,42.9536910057,,,,,14.4,2.52,-0.8,40.9976270199
-0.0160527043045,0.0555826947093,-1.06065928936,42.9560890198,,,,,3.08,2.24,-1.5,40.9980220795
-0.00432435236871,0.0339297428727,-1.05772614479,42.9584820271,,,,,1.78,4.31,-1.82,40.9984071255
-0.0125893987715,0.0370048284531,-1.05348670483,42.9974081516,,,,,3.27,5.93,-1.9,40.9987761974
-0.0227840915322,0.0477540194988,-1.04881191254,42.9998090267,,,,,11.16,5.37,-1.39,40.9991400242
-0.0124490484595,0.057928584516,-1.06067800522,43.0022070408,,,,,14.02,2.51,-1.06,41.0000669956
-0.00610541924834,0.0635119751096,-1.06208300591,43.0046420097,,,,,6.19,3.22,-1.7,41.0004601479
-0.00980177894235,0.0747192278504,-1.05661189556,43.0419921875,,,,,-2.16,5.6,-2.4,41.000824213
-0.012267626822,0.0590513050556,-1.0717921257,43.0444262028,,,,,-2.25,5.83,-2.29,41.0011889935
-0.011308748275,0.04977542907,-1.066827178,43.0468261242,,,,,0.82,5.28,-1.89,41.0015521049
-0.013296417892,0.0578505396843,-1.06740009785,43.0492210388,,,,,10.71,3.98,-0.92,41.0024621487
-0.0145640186965,0.0530799403787,-1.06777787209,43.0516161919,,,,,9.73,4.36,-1.43,41.0028860569
-0.0121565647423,0.0432764217257,-1.0546861887,43.0886881351,,,,,4.68,3.95,-1.91,41.003262043
-0.0182783864439,0.0427909418941,-1.04371798038,43.0910861492,,,,,0.29,3.17,-2.23,41.0036280155
-0.011227928102,0.0525690093637,-1.05012142658,43.0935230255,,,,,-0.36,2.67,-1.89,41.0039970875
0.00102342304308,0.0446741506457,-1.06730282307,43.0959191322,,,,,3.68,3.63,-1.43,41.0049090385
-0.00754885748029,0.0374710410833,-1.07408416271,43.0983171463,,,,,13.47,5.97,-1.43,41.005300045
-0.0138253495097,0.0388245806098,-1.08413040638,43.1396532059,,,,,11.14,4.92,-2.05,41.005669117
-0.00304658152163,0.0439006909728,-1.06530678272,43.142054081,,,,,1.83,2.61,-3.22,41.0060319901
-0.00207275338471,0.0491766780615,-1.04549503326,43.1444911957,,,,,-1.38,3.05,-3.28,41.006398201
-0.000965319457464,0.0428487062454,-1.07402896881,43.146887064,,,,,0.49,6.99,-2.37,41.0073091984
0.0102377254516,0.0464659482241,-1.0716034174,43.1493010521,,,,,9.15,8.83,-1.34,41.0077149868
0.00341284647584,0.0501096248627,-1.06105959415,43.1891651154,,,,,13.19,5.8,-1.19,41.0080862045
0.00641005299985,0.0615832731128,-1.05753302574,43.1915609837,,,,,11.99,4.48,-1.33,41.0084500313
0.0118405520916,0.0569866448641,-1.0644005537,43.193996191,,,,,6.38,5.25,-1.32,41.0088150501
0.00989273749292,0.0391417592764,-1.04650270939,43.1963942051,,,,,3.86,6.77,-1.09,41.009747982
0.00814564339817,0.0515929982066,-1.05790770054,43.2322361469,,,,,6.88,7.57,-0.43,41.0101461411
0.017732065171,0.0621344149113,-1.06083357334,43.234675169,,,,,10.21,6.55,-0.36,41.0105102062
0.0280954409391,0.0432235375047,-1.05930769444,43.2370731831,,,,,13.91,5.71,-0.54,41.010874033
0.0241747200489,0.0301032904536,-1.04915213585,43.2394721508,,,,,12.29,6.13,-0.74,41.0112380981
0.0182360317558,0.0470445975661,-1.04314923286,43.2418680191,,,,,-0.06,6.35,-1.58,41.0121910572
0.0221935324371,0.0474920198321,-1.05142915249,43.2799851894,,,,,-1.23,5.99,-1.58,41.012540102
0.0252053402364,0.0415481626987,-1.05215322971,43.2823791504,,,,,5.3,6.33,-0.66,41.0129361153
0.033644195646,0.0410367324948,-1.05849313736,43.2848160267,,,,,10.36,7.04,0.1,41.0133051872
0.0314084626734,0.0161912348121,-1.05394637585,43.2872121334,,,,,14.07,7.21,1.2,41.0136730671
0.0211988482624,0.0175181869417,-1.02649486065,43.2896091938,,,,,11.06,6.14,1.27,41.0145840645
0.0208403691649,0.0403002351522,-1.02113938332,43.3297359943,,,,,-0.85,4.2,0.66,41.0149781704
0.034519854933,0.0524730533361,-1.03036856651,43.3321361542,,,,,0.12,5.33,0.77,41.0153419971
0.0440280996263,0.0313364118338,-1.02857458591,43.3345811367,,,,,8.72,7.83,1.49,41.0157091618
0.0495952665806,0.0267676394433,-1.0328874588,43.3369791508,,,,,12.65,7.76,1.65,41.0160720348
0.049720980227,0.0356763154268,-1.04093396664,43.3393762112,,,,,12.0,5.44,1.08,41.0169820786
0.0394164212048,0.0498579442501,-1.02735424042,43.3788042068,,,,,4.04,4.88,-0.45,41.0173771381
0.047776684165,0.0520103350282,-1.0204719305,43.3811981678,,,,,-0.16,7.73,-1.44,41.017742157
0.0568599328399,0.0379745364189,-1.03817737103,43.3836400509,,,,,1.26,8.85,-1.46,41.0181059837
0.0658119916916,0.0270680952817,-1.05525016785,43.3860411644,,,,,8.05,8.61,-0.79,41.0184710026
0.0737479180098,0.0345369800925,-1.06859743595,43.4221529961,,,,,10.77,7.75,-0.31,41.019382
0.0813961178064,0.0526284202933,-1.07434630394,43.4245841503,,,,,7.63,7.07,0.44,41.0197761059
0.0788374990225,0.0547282099724,-1.06463623047,43.4269812107,,,,,3.71,7.27,0.42,41.020138979
0.060082770884,0.0822250321507,-1.03909516335,43.4293761253,,,,,-1.29,7.01,0.24,41.0205020905
0.0488385036588,0.082108296454,-1.04731750488,43.4317750931,,,,,-0.4,6.78,0.31,41.020868063
0.0349681675434,0.0712305083871,-1.0511661768,43.4701731205,,,,,7.37,7.1,0.69,41.0218031406
0.0388926528394,0.0779220536351,-1.02678334713,43.4725701809,,,,,13.37,7.53,0.76,41.0221941471
0.0293524004519,0.0739414021373,-1.03064239025,43.4750020504,,,,,8.69,6.33,-0.38,41.0225601196
0.0249112602323,0.0524821579456,-1.03488326073,43.4773960114,,,,,4.01,5.82,-1.19,41.0229570866
0.0343692302704,0.0341588184237,-1.02598452568,43.4797871113,,,,,0.52,5.94,-1.89,41.0233230591
0.0207999795675,0.030176082626,-1.00781226158,43.5195059776,,,,,2.76,8.19,-2.36,41.0242230892
0.0112352231517,0.0344573631883,-0.999222517014,43.521900177,,,,,17.32,8.5,-1.31,41.0246191025
0.0115298051387,0.0411267578602,-0.994380831718,43.5243451595,,,,,17.49,6.92,-1.01,41.024982214
0.0199370756745,0.0433427989483,-0.993842959404,43.5267441273,,,,,14.2,5.45,-0.84,41.0253481865
0.0238478332758,0.0378036350012,-1.01285481453,43.5291440487,,,,,4.05,5.08,-0.58,41.0257132053
0.0214256886393,0.0339914560318,-1.00064659119,43.5680270195,,,,,1.23,6.22,-0.32,41.0266230106
0.0171066205949,0.0426667034626,-0.987014889717,43.570428133,,,,,9.13,7.46,0.67,41.0270180702
0.0165596194565,0.049776494503,-1.00320315361,43.5728611946,,,,,14.19,5.37,0.73,41.0273811817
0.0146000087261,0.0592135116458,-1.02278053761,43.5752689838,,,,,12.69,4.77,0.44,41.0277462006
0.0124433375895,0.0553922504187,-1.01625084877,43.6108431816,,,,,8.81,4.91,0.04,41.028110981
0.0214296802878,0.0454590693116,-1.01907145977,43.6132800579,,,,,0.15,6.27,-0.69,41.029020071
0.0388130173087,0.0497652217746,-1.02440977097,43.6156961918,,,,,3.38,6.78,-0.24,41.0294291973
0.0362626053393,0.0547981932759,-1.02126264572,43.6180961132,,,,,8.06,6.4,0.4,41.0298011303
0.0252306610346,0.0579807087779,-1.02970337868,43.6204931736,,,,,12.08,5.95,1.16,41.0301661491
0.0303486455232,0.0620518103242,-1.0376714468,43.6598432064,,,,,13.08,4.67,2.28,41.0305302143
0.0366968438029,0.0600640997291,-1.03021502495,43.6651630402,,,,,9.9,3.92,2.47,41.0314390659
0.0280413348228,0.0527222678065,-1.01492631435,43.6708550453,,,,,0.82,4.14,1.38,41.0318310261
0.0269057806581,0.0434603989124,-1.00490522385,43.6733491421,,,,,2.49,5.05,0.89,41.0321950912
0.0230189263821,0.0490581840277,-1.00600337982,43.6757559776,,,,,11.53,6.2,0.21,41.0325582027
0.0165349747986,0.0575890541077,-1.00180363655,43.7097301483,,,,,15.24,5.79,0.01,41.0329539776
0.0129338297993,0.0538387075067,-1.01074159145,43.7121331692,,,,,13.47,4.56,-0.35,41.0339050293
0.0162002146244,0.0507893264294,-1.01051485538,43.7146232128,,,,,-1.13,7.26,-1.27,41.0342969894
0.0187003463507,0.040815398097,-1.01549482346,43.717097044,,,,,-2.28,8.96,-1.22,41.0346632004
0.0205621477216,0.0437404736876,-1.02067530155,43.719504118,,,,,-0.17,10.16,-0.82,41.0350270271
0.0281023140997,0.0587005466223,-1.02024435997,43.7575600147,,,,,8.07,10.42,1.08,41.035392046
0.0229530725628,0.0623700916767,-1.03656685352,43.7599611282,,,,,10.27,9.97,2.18,41.0363030434
0.0280589610338,0.0559215843678,-1.03292131424,43.7623610497,,,,,1.2,9.59,3.84,41.0366950035
0.0319562889636,0.046742811799,-1.0360711813,43.7648069859,,,,,-3.04,10.11,3.7,41.0370590687
0.0293430853635,0.0480603724718,-1.02695214748,43.8010420799,,,,,-3.87,11.97,3.1,41.0374231339
0.0300010852516,0.0473484396935,-1.0209403038,43.8034791946,,,,,-0.38,13.25,2.85,41.0377922058
0.0312321260571,0.0357316061854,-1.02707123756,43.8058781624,,,,,8.25,15.55,2.23,41.0386941433
0.0297270026058,0.0349122062325,-1.02885460854,43.8082811832,,,,,9.65,16.27,1.06,41.0390880108
0.0263479687274,0.0439194366336,-1.02768731117,43.8106780052,,,,,3.39,16.65,-0.35,41.039452076
0.0196109768003,0.0462674424052,-1.0269190073,43.8507561684,,,,,0.19,17.98,-0.72,41.0398161411
0.02123593539,0.0623531118035,-1.01942682266,43.8531911373,,,,,-0.73,23.08,-0.59,41.0401790142
0.0216413196176,0.0552660375834,-1.01319980621,43.8555960655,,,,,1.94,25.79,-0.24,41.0410790443
0.0175314117223,0.0453191697598,-1.02137899399,43.8579940796,,,,,12.2,28.14,0.37,41.0414721966
0.0239974278957,0.0507511273026,-1.03204464912,43.8603920937,,,,,12.61,27.88,0.39,41.041836977
0.0243182387203,0.0584504753351,-1.03632605076,43.8994600773,,,,,7.48,29.71,0.47,41.0422019958
0.0267024245113,0.0600575208664,-1.05037522316,43.9018671513,,,,,3.94,32.01,0.54,41.042566061
0.0280949119478,0.0612019523978,-1.04519402981,43.904309988,,,,,2.44,36.64,0.35,41.0435140133
0.0292260441929,0.0609824433923,-1.03429460526,43.9067060947,,,,,10.57,38.23,0.0,41.0439081192
0.0234002806246,0.0433379262686,-1.01844215393,43.9091031551,,,,,16.89,39.47,0.26,41.0442931652
0.0152591019869,0.0362879186869,-1.01545083523,43.9478051662,,,,,15.36,41.21,0.58,41.0446600914
0.0107211843133,0.042455509305,-1.02025949955,43.9502050877,,,,,4.47,46.31,0.78,41.0450241566
0.00974271073937,0.0475857555866,-1.02935194969,43.9526000023,,,,,-0.3,48.64,0.41,41.0459370613
0.00341663137078,0.0477523729205,-1.01870787144,43.955039978,,,,,3.84,53.59,0.06,41.0463311672
0.0011379608186,0.051051825285,-0.995232343674,43.9907209873,,,,,8.05,55.45,1.03,41.0466971397
-0.0042968634516,0.0490489676595,-0.9910364151,43.9931561947,,,,,8.69,60.06,3.61,41.0470612049
-0.00952907279134,0.0481360629201,-1.00075232983,43.9955570698,,,,,4.14,61.93,4.35,41.0474259853
-0.00702944397926,0.0515577271581,-0.987190246582,43.9979510307,,,,,-6.39,63.93,3.75,41.0483350754
-0.0123100578785,0.0525927990675,-0.987893939018,44.0003449917,,,,,-7.37,66.07,2.67,41.0487279892
-0.0238179005682,0.0524624437094,-0.992509961128,44.0399141312,,,,,0.06,70.89,3.76,41.0490942001
-0.0264048725367,0.0582327097654,-0.980042815208,44.0423099995,,,,,3.26,73.58,4.69,41.0494589806
-0.0369547903538,0.0726040825248,-0.985918164253,44.0447480679,,,,,4.34,75.66,5.3,41.0498239994
-0.0353346765041,0.0722946450114,-0.986238121986,44.0471491814,,,,,0.47,77.3,4.49,41.0507340431
-0.0244166776538,0.0709628164768,-0.987300515175,44.0495471954,,,,,-4.95,81.7,1.97,41.0511250496
-0.0345147550106,0.0623779147863,-0.973208189011,44.089315176,,,,,-3.36,84.99,2.28,41.0514900684
-0.0387428328395,0.0556838661432,-0.979466199875,44.0917141438,,,,,3.95,91.36,3.75,41.0518541336
-0.028724193573,0.0620084181428,-0.96938598156,44.0941531658,,,,,7.39,93.16,4.11,41.0522181988
-0.0233436450362,0.0605629459023,-0.939367175102,44.09654212,,,,,8.4,94.13,3.2,41.0531589985
-0.0193760842085,0.05358184129,-0.938912689686,44.1337680817,,,,,2.77,96.5,1.79,41.0535562038
-0.0200148336589,0.0517457351089,-0.947251856327,44.1361951828,,,,,0.03,102.1,1.98,41.0539250374
-0.0200833454728,0.0567716360092,-0.949387311935,44.1385970116,,,,,2.22,105.13,2.35,41.0542910099
-0.00501116737723,0.0555185005069,-0.945779085159,44.1409950256,,,,,6.1,107.54,2.5,41.0546560287
0.00315665639937,0.0461204946041,-0.958647012711,44.1434400082,,,,,12.33,109.84,1.58,41.0555830002
-0.00335841439664,0.0491489246488,-0.945837318897,44.1800451279,,,,,-3.88,132.64,-0.73,41.0559511185
-0.00218704342842,0.0659633725882,-0.927173376083,44.182446003,,,,,-0.05,129.15,-0.48,41.0563161373
0.00465416163206,0.0687242895365,-0.924828588963,44.1848859787,,,,,0.85,126.78,-0.55,41.0572249889
0.00697423517704,0.057259246707,-0.920897185802,44.1873431206,,,,,-1.61,122.05,-0.88,41.0576181412
0.00370990112424,0.0669721737504,-0.92805993557,44.1897461414,,,,,-2.89,121.24,-0.86,41.0579822063
-0.000396503019147,0.0807141140103,-0.922639846802,44.2298309803,,,,,-3.36,119.0,-0.72,41.0583481789
-0.00521499663591,0.0770022049546,-0.915269672871,44.2322301865,,,,,-2.57,117.45,-0.81,41.0587120056
0.00298304110765,0.0753810033202,-0.888796567917,44.2346761227,,,,,-0.26,113.83,-1.05,41.059623003
0.00841580890119,0.0733888968825,-0.886901319027,44.2370760441,,,,,1.14,110.21,-1.03,41.0600171089
0.0108077321202,0.0579060092568,-0.897902429104,44.2394731045,,,,,-0.19,106.6,-0.68,41.0603811741
0.0171940792352,0.0573659315705,-0.902022004128,44.2791121006,,,,,-1.87,105.04,-0.69,41.0607461929
0.0130241885781,0.0578342750669,-0.909260630608,44.2815070152,,,,,-3.64,103.6,-0.87,41.0611100197
0.00599434040487,0.0576645508409,-0.900090873241,44.2839441299,,,,,-4.77,100.19,-1.14,41.0620260239
0.00234173610806,0.050464630127,-0.90514087677,44.2863490582,,,,,-0.08,93.98,-0.41,41.0624201298
-0.00271222367883,0.0572721138597,-0.917073369026,44.3237609863,,,,,0.43,92.35,-0.16,41.0627841949
0.00474253110588,0.0711379572749,-0.915077805519,44.3261630535,,,,,-3.09,89.97,-0.47,41.0631802082
0.0101999212056,0.0655266866088,-0.922113835812,44.3285610676,,,,,-5.89,88.61,-0.72,41.0635471344
0.00561469234526,0.0451898723841,-0.913624346256,44.3309600353,,,,,-8.62,85.1,-0.84,41.0644609928
0.00472727324814,0.0326025485992,-0.906819999218,44.333409071,,,,,-5.81,81.77,-0.2,41.0648531914
0.00231176055968,0.0396899655461,-0.895800292492,44.3701300621,,,,,-2.76,80.03,-0.17,41.0652201176
0.00289900787175,0.0504220202565,-0.893033802509,44.372533083,,,,,-2.95,78.93,-0.36,41.0655841827
0.0016354174586,0.0461980551481,-0.903713226318,44.3749690056,,,,,-4.26,77.39,-0.57,41.0659511089
-0.00450471229851,0.0358795598149,-0.901904761791,44.3773651123,,,,,-8.27,73.63,-0.66,41.0668950081
-0.00381130538881,0.0470875948668,-0.897955477238,44.3797650337,,,,,-9.61,72.11,-0.44,41.0672450066
-0.000718068215065,0.0679197013378,-0.878774404526,44.4196431637,,,,,-8.91,70.32,-0.29,41.0676100254
-6.64162216708e-05,0.0676615834236,-0.87019610405,44.4220421314,,,,,-7.06,69.41,-0.35,41.0679731369
-0.00124398607295,0.0624571815133,-0.880919992924,44.4244790077,,,,,-4.91,68.02,-0.4,41.0683400631
-0.00164446036797,0.0593762621284,-0.884783446789,44.4268741608,,,,,-3.12,64.45,-0.49,41.0687041283
0.00660341233015,0.053066380322,-0.878237187862,44.4292731285,,,,,-4.52,62.92,-0.42,41.0696160793
0.00668638199568,0.0455965176225,-0.872851192951,44.4690651894,,,,,-12.43,59.86,-0.78,41.0700101852
-0.00369952060282,0.0399840846658,-0.8721960783,44.4714610577,,,,,-11.15,57.02,-1.01,41.070374012
-0.00277162902057,0.0574985593557,-0.870469927788,44.4739041328,,,,,-8.32,55.62,-0.88,41.0707371235
0.00445248186588,0.0658825486898,-0.866946399212,44.4763031006,,,,,-5.59,54.49,-0.52,41.0711021423
0.0109705608338,0.0733680948615,-0.848992526531,44.5122210979,,,,,-5.42,52.56,0.35,41.0720231533
0.0136093106121,0.0696576759219,-0.84930062294,44.51466012,,,,,-15.05,47.72,0.43,41.0724151134
0.00925731286407,0.0582219138741,-0.853804886341,44.5170600414,,,,,-16.06,46.44,0.34,41.0727820396
0.0126983765513,0.0633999854326,-0.853352665901,44.5194652081,,,,,-14.82,45.96,0.39,41.0731761456
0.0121031496674,0.0688774287701,-0.847727179527,44.52186203,,,,,-9.23,46.1,1.07,41.0735421181
0.00410123541951,0.0679880231619,-0.853458583355,44.5599360466,,,,,-7.38,45.52,1.36,41.0744550228
0.00480541028082,0.0541294291615,-0.850683510303,44.5623350143,,,,,-10.5,39.7,1.08,41.074848175
0.00769671611488,0.0405970737338,-0.843678534031,44.5647690296,,,,,-12.07,38.56,0.54,41.0752131939
0.0129947643727,0.0490471497178,-0.850612878799,44.5671641827,,,,,-12.36,39.52,-0.49,41.0755770206
0.0140543859452,0.0502057820559,-0.849833846092,44.5695631504,,,,,-11.14,40.25,-0.88,41.0759420395
0.0180251393467,0.0436870828271,-0.83792090416,44.6102650166,,,,,-7.64,38.72,-1.23,41.0768530369
0.0260795988142,0.04052451998,-0.827657580376,44.6126639843,,,,,-4.39,34.41,-1.28,41.0772471428
0.0219528712332,0.0362276956439,-0.824964821339,44.6151051521,,,,,-3.85,32.82,-1.82,41.077614069
0.0133058363572,0.0519154593349,-0.815841317177,44.6175050735,,,,,-5.26,33.14,-2.39,41.0779781342
0.013587587513,0.0651934593916,-0.800674498081,44.6199061871,,,,,-9.01,33.18,-3.96,41.078343153
0.0177658591419,0.0697948560119,-0.800675272942,44.6588129997,,,,,-9.43,32.1,-4.51,41.0792729855
0.015102667734,0.0662325024605,-0.812137365341,44.6612200737,,,,,-1.56,28.4,-4.7,41.0796670914
0.0178349912167,0.0427390187979,-0.818685472012,44.6636841297,,,,,0.35,27.88,-4.52,41.0800311565
0.0267663374543,0.0401911213994,-0.816173195839,44.6660850048,,,,,-3.32,26.85,-4.65,41.0803961754
0.0235932003707,0.0521173104644,-0.823650300503,44.7021222115,,,,,-7.58,25.85,-4.79,41.0807611942
0.017739135772,0.0519665554166,-0.816391170025,44.704595089,,,,,-11.94,23.85,-4.56,41.0816750526
0.0238511264324,0.0433247610927,-0.805580794811,44.7069990635,,,,,-6.51,23.67,-3.45,41.0820710659
0.0348995029926,0.0324973240495,-0.787190198898,44.7093970776,,,,,-0.99,23.79,-2.09,41.0824351311
0.0318569205701,0.044141612947,-0.769234478474,44.711853981,,,,,-1.53,22.91,-1.55,41.0828280449
0.0230551809072,0.0482011586428,-0.769637525082,44.7501649857,,,,,-7.24,19.73,-0.74,41.0831971169
0.021265655756,0.0363835841417,-0.777662336826,44.7525651455,,,,,-9.69,18.59,-0.55,41.0841112137
0.0240803863853,0.036287009716,-0.781869411469,44.7550070286,,,,,-9.12,19.82,-0.33,41.0845050812
0.0283037424088,0.040917262435,-0.785946547985,44.7574081421,,,,,-7.3,20.32,-0.46,41.0848701
0.0289755705744,0.03679035604,-0.79370445013,44.7598001957,,,,,-4.56,18.29,-0.71,41.0852360725
0.0216110870242,0.0282954927534,-0.787572443485,44.799475193,,,,,-4.38,16.39,-0.99,41.0856010914
0.0253641419113,0.0343464836478,-0.780659139156,44.8018710613,,,,,-7.23,14.15,-1.89,41.0865139961
0.0357690230012,0.0533712431788,-0.761823475361,44.8043150902,,,,,-11.38,15.73,-3.18,41.0869071484
0.0307268388569,0.0553988441825,-0.7579677701,44.8067131042,,,,,-9.48,16.71,-4.24,41.0872712135
0.0280323345214,0.033167809248,-0.792307674885,44.8091101646,,,,,-5.64,15.56,-4.39,41.0876371861
0.0354057177901,0.0311362277716,-0.807548284531,44.8479020596,,,,,1.34,11.25,-3.81,41.0880000591
0.0447645187378,0.0372461229563,-0.803787469864,44.8502991199,,,,,1.3,9.56,-3.11,41.0889132023
0.0448577590287,0.040557526052,-0.804018378258,44.852697134,,,,,-11.17,8.69,-0.76,41.0893061161
0.0329299755394,0.0351449921727,-0.792827486992,44.8551402092,,,,,-13.16,8.22,0.02,41.0896701813
0.0312610343099,0.0268956441432,-0.766970515251,44.8908081055,,,,,-8.23,5.2,1.58,41.090034008
0.0403609834611,0.0237662661821,-0.770601689816,44.8932480812,,,,,-4.23,3.37,2.55,41.0904171467
0.0444204285741,0.0320169776678,-0.777830123901,44.8956520557,,,,,-2.94,1.49,4.26,41.0913290977
0.0447507761419,0.0437631830573,-0.782850682735,44.8980472088,,,,,-11.1,0.93,5.25,41.0917220116
0.0439764484763,0.0374279469252,-0.794032394886,44.9004380703,,,,,-15.51,-0.75,4.94,41.0920870304
0.0433006733656,0.0336724296212,-0.792764782906,44.9398331642,,,,,-13.83,-1.76,4.4,41.0924501419
0.0435590073466,0.039688847959,-0.783287882805,44.9422330856,,,,,-10.6,-2.24,3.73,41.0928430557
0.0466262064874,0.0365002155304,-0.780247926712,44.9446690083,,,,,-4.64,-1.41,2.1,41.093763113
0.0483820438385,0.0415294915438,-0.780392765999,44.9470641613,,,,,-4.32,-3.4,0.97,41.0941560268
0.0521384254098,0.0495971888304,-0.781360566616,44.9494621754,,,,,-5.19,-5.5,0.87,41.0945219994
0.052545696497,0.0473616346717,-0.779687464237,44.989577055,,,,,-6.01,-7.12,0.66,41.0948860645
0.0461773425341,0.0220293793827,-0.763679146767,44.991975069,,,,,-6.42,-6.72,-0.9,41.0952510834
0.0425592511892,-0.000339768826962,-0.746224343777,44.9944150448,,,,,-5.22,-5.49,-2.02,41.0961630344
0.0506456792355,-0.00812336057425,-0.765772461891,44.9968140125,,,,,2.71,-6.6,-3.53,41.0965561867
0.0578373447061,-0.00197170116007,-0.776344060898,44.9992129803,,,,,2.19,-10.07,-2.5,41.0969212055
0.0580072924495,0.0179574135691,-0.75023663044,45.037471056,,,,,-1.46,-10.32,-2.29,41.0972850323
0.0469802878797,0.021637359634,-0.753845870495,45.0398681164,,,,,-5.91,-9.65,-2.5,41.0976510048
0.0488381125033,0.0235950704664,-0.768347084522,45.0422689915,,,,,-9.85,-8.28,-3.27,41.0985610485
0.0577615723014,0.0429369583726,-0.781427145004,45.0447061062,,,,,-1.75,-11.32,-0.57,41.0989530087
0.0558518320322,0.0618900433183,-0.784145653248,45.080999136,,,,,-1.7,-12.1,1.28,41.0993180275
0.0569881722331,0.0537395551801,-0.789366185665,45.0834469795,,,,,-4.72,-12.33,2.9,41.0996820927
0.0611870363355,0.0549463257194,-0.791651725769,45.0858449936,,,,,-14.88,-12.73,4.5,41.1000461578
0.0695656687021,0.0493962690234,-0.785498559475,45.0882370472,,,,,-17.7,-13.41,4.49,41.1009562016
0.0607535764575,0.0249128695577,-0.793711543083,45.0906381607,,,,,-11.85,-14.1,4.26,41.1013481617
0.0469366982579,0.0153450090438,-0.79932487011,45.1301109791,,,,,-9.04,-12.68,4.15,41.1017332077
0.0609679594636,0.0149636622518,-0.800780773163,45.1325089931,,,,,-8.24,-10.52,3.15,41.1020991802
0.0762407556176,0.025401731953,-0.792745292187,45.1349451542,,,,,-9.4,-10.99,2.23,41.1024641991
0.0739239230752,0.034041441977,-0.789975762367,45.137348175,,,,,-10.53,-13.86,0.13,41.1034090519
0.0654458627105,0.0345964878798,-0.788891077042,45.1397390366,,,,,-8.91,-13.01,-1.56,41.1038031578
0.062388189137,0.0285460408777,-0.786572098732,45.1794121265,,,,,-4.84,-8.39,-3.14,41.1041681767
0.0639147534966,0.0373640432954,-0.778830587864,45.1818029881,,,,,-2.07,-7.21,-3.72,41.1045331955
0.0738300457597,0.0531173497438,-0.772492170334,45.1842381954,,,,,3.23,-9.56,-3.84,41.1048982143
0.0790282785892,0.0517923161387,-0.793291866779,45.1866290569,,,,,4.0,-11.59,-3.26,41.1058080196
0.0769843831658,0.061716966331,-0.807564258575,45.1890220642,,,,,-3.45,-11.28,-1.76,41.1062021255
0.0785196125507,0.0516872778535,-0.799779176712,45.2277719975,,,,,-5.65,-9.89,-1.81,41.1065671444
0.081003755331,0.0315971672535,-0.782191812992,45.2301721573,,,,,-3.11,-9.66,-1.91,41.1069321632
0.0810562819242,0.0209429953247,-0.776658415794,45.2325630188,,,,,0.16,-10.9,-1.43,41.10729599
0.0866654217243,0.0354027077556,-0.789409518242,45.2350010872,,,,,2.55,-13.03,0.2,41.1082060337
0.100220568478,0.0595376417041,-0.801273882389,45.2707080841,,,,,-5.58,-13.21,0.71,41.1085979939
0.0950027704239,0.0372718498111,-0.798058688641,45.2731471062,,,,,-13.16,-14.01,-0.13,41.108962059
0.0851780474186,0.0197240319103,-0.806286513805,45.2755460739,,,,,-12.73,-15.06,-0.41,41.1093261242
0.0869201719761,0.0217338744551,-0.806442379951,45.2779471874,,,,,-5.35,-16.82,0.12,41.1096940041
0.0899793505669,0.0336110964417,-0.80419331789,45.2803430557,,,,,-1.71,-17.18,0.5,41.1106050014
0.0831891298294,0.0372505784035,-0.804938614368,45.3199021816,,,,,-4.0,-20.31,0.02,41.1109972
0.0786493495107,0.0238904114813,-0.817235529423,45.3222961426,,,,,-6.25,-22.45,-0.52,41.1113610268
0.0669678077102,0.0285726133734,-0.82170021534,45.3247761726,,,,,-6.23,-25.43,-1.12,41.1117250919
0.0612337961793,0.0528763309121,-0.843858003616,45.3271760941,,,,,-3.71,-25.73,-1.18,41.1120941639
0.0594339817762,0.0561612248421,-0.863174855709,45.3295760155,,,,,2.67,-26.39,-1.27,41.1464531422
0.0422127246857,0.0103597138077,-0.884517729282,45.3693101406,,,,,5.64,-31.06,-1.44,41.1468482018
0.0344122052193,0.0057955738157,-0.905530452728,45.3717091084,,,,,3.77,-36.3,-1.77,41.1472129822
0.0507180765271,0.0433458536863,-0.91607439518,45.3741509914,,,,,1.82,-37.24,-2.05,41.1475760937
0.0652471482754,0.0403508841991,-0.898425161839,45.376540184,,,,,-0.77,-37.13,-3.1,41.1479411125
0.0562841519713,0.0259256791323,-0.885160684586,45.4138011932,,,,,-0.12,-38.14,-3.53,41.1488730907
0.0480509139597,0.0192747879773,-0.872745275497,45.4162330627,,,,,6.72,-47.18,-3.17,41.1492681503
0.0518483445048,0.0260647367686,-0.867142677307,45.4186279774,,,,,7.44,-49.81,-2.69,41.1496350765
0.0549368560314,0.035022392869,-0.870646059513,45.4210290909,,,,,3.21,-52.3,-2.25,41.1500000954
0.0548016801476,0.032065525651,-0.870328426361,45.4234740734,,,,,-0.02,-53.67,-2.36,41.1503632069
0.0448162928224,0.00877167470753,-0.888226687908,45.4599401951,,,,,-0.04,-62.31,-2.17,41.1512770653
0.0415701717138,0.0194383691996,-0.876759052277,45.4623391628,,,,,3.11,-65.36,-1.75,41.1516680717
0.0525419265032,0.0499490275979,-0.870863497257,45.4647800922,,,,,6.98,-69.53,-1.08,41.1520321369
0.0424425639212,0.0305299218744,-0.887401580811,45.4671730995,,,,,5.86,-71.6,-1.12,41.1523981094
0.0319731421769,0.018562970683,-0.890733957291,45.4695730209,,,,,3.3,-74.29,-1.37,41.1527631283
0.0559697523713,0.045187599957,-0.895632147789,45.5101661682,,,,,-0.93,-80.51,-2.36,41.1537160873
0.0595100000501,0.041188813746,-0.90871912241,45.5125601292,,,,,3.7,-86.09,-3.79,41.1541101933
0.0422561019659,0.0183241274208,-0.906370818615,45.5149960518,,,,,5.78,-87.69,-4.25,41.15447402
0.0579450577497,0.00276586972177,-0.901307344437,45.5173950195,,,,,6.41,-93.43,-4.85,41.1548411846
0.0678879395127,-0.0154627058655,-0.898038029671,45.5197911263,,,,,5.39,-97.02,-5.13,41.1552050114
0.0566760674119,0.00187704153359,-0.869935750961,45.5590481758,,,,,3.69,-102.66,-5.4,41.1561150551
0.0761777758598,0.018300710246,-0.848254024982,45.5614390373,,,,,3.48,-105.54,-5.46,41.1565101147
0.069120503962,0.00684140436351,-0.857251465321,45.5638730526,,,,,4.25,-110.31,-4.95,41.1568751335
0.0452932715416,0.00195911154151,-0.876678466797,45.5662732124,,,,,4.69,-113.66,-4.65,41.1572391987
0.0625395029783,0.0408414006233,-0.885518074036,45.6036992073,,,,,5.41,-117.15,-4.5,41.1576061249
0.0798906907439,0.0532557144761,-0.881135463715,45.6061019897,,,,,6.37,-122.35,-4.79,41.1940321922
0.0736873373389,0.0382291376591,-0.88195002079,45.6084990501,,,,,2.66,-128.29,-5.98,41.1944332123
0.0646846964955,0.0398242771626,-0.889539241791,45.6108942032,,,,,0.97,-131.08,-5.94,41.1947991848
0.0695859715343,0.0398382171988,-0.883440971375,45.6133341789,,,,,0.13,-134.14,-5.65,41.1951642036
0.0737834945321,0.0296931955963,-0.881125807762,45.6500651836,,,,,1.97,-139.53,-4.91,41.1955280304
0.0565107241273,0.0199681874365,-0.874845981598,45.6524651051,,,,,3.41,-141.59,-4.85,41.1964399815
0.052425712347,0.0330489054322,-0.886802971363,45.6549081802,,,,,1.07,-148.39,-5.08,41.1968331337
0.0728011727333,0.0294806305319,-0.903236567974,45.6573021412,,,,,-1.73,-151.14,-4.99,41.1971981525
0.0548138692975,-0.00961272791028,-0.903836131096,45.6596951485,,,,,-5.76,-155.97,-4.2,41.1975641251
0.0395228266716,-0.00453521870077,-0.914416670799,45.6996250153,,,,,-5.57,-157.79,-3.82,41.1979300976
0.0608281046152,0.0324016064405,-0.921822369099,45.7020311356,,,,,-1.94,-160.81,-3.2,41.198841095
0.0599562674761,0.0246269945055,-0.944021344185,45.7044730186,,,,,-0.19,-166.75,-3.02,41.1992330551
0.0540335550904,0.0126890446991,-0.951531350613,45.7068691254,,,,,-1.63,-169.03,-3.07,41.1995990276
0.0754072740674,0.0598697885871,-0.923856794834,45.70926404,,,,,-3.18,-171.12,-3.25,41.1999630928
0.0722644031048,0.0612284615636,-0.916485607624,45.7491140366,,,,,-2.95,-174.04,-3.53,41.2003290653
0.0737745016813,0.0372413247824,-0.909792006016,45.7515120506,,,,,-0.99,-174.82,-3.37,41.2012400627
0.082753367722,0.0367258489132,-0.892076075077,45.7539410591,,,,,4.71,-178.0,-2.03,41.2016329765
0.0578983277082,0.0497773513198,-0.888238310814,45.7563362122,,,,,3.67,-180.16,-1.66,41.2019979954
0.0636878982186,0.0671947300434,-0.912640333176,45.792181015,,,,,-2.24,-184.5,-1.56,41.2023611069
0.081721432507,0.0460436418653,-0.924592256546,45.7946200371,,,,,-5.2,-185.84,-1.62,41.2027261257
0.0788098499179,0.00397716648877,-0.934540629387,45.7970180511,,,,,-6.79,-186.17,-1.42,41.2036809921
0.0828073844314,-0.00361558422446,-0.919986069202,45.7994170189,,,,,-5.12,-186.56,-0.7,41.2040741444
0.089035898447,0.0149907041341,-0.911092340946,45.8018109798,,,,,-6.23,-189.36,-0.77,41.2044391632
0.0798584669828,0.00883818790317,-0.917513072491,45.8398871422,,,,,-8.23,-190.92,-1.09,41.2048041821
0.0924788489938,0.027575602755,-0.924928665161,45.8422820568,,,,,-11.22,-192.31,-1.65,41.2388260365
0.104205414653,0.0257114004344,-0.935501992702,45.8447179794,,,,,-10.88,-192.0,-1.58,41.2397441864
0.0801740288734,0.0351695865393,-0.931518614292,45.8471121788,,,,,-7.11,-191.9,-1.09,41.2401390076
0.0759238898754,0.0494297668338,-0.932642042637,45.8495101929,,,,,-6.61,-192.35,-1.44,41.2405030727
0.0758220404387,0.0278336312622,-0.958560585976,45.8896420002,,,,,-6.1,-193.02,-2.62,41.2408671379
0.0787640139461,0.0528254881501,-0.971299469471,45.8920381069,,,,,-5.34,-192.85,-3.02,41.2412321568
0.0691857933998,0.0731833055615,-0.965041637421,45.8944749832,,,,,-4.52,-192.39,-2.87,41.2421431541
0.0559325516224,0.0262418333441,-0.952227294445,45.8968741894,,,,,-6.89,-191.62,-2.81,41.2425370216
0.0617294609547,-0.0110771134496,-0.946882665157,45.8992681503,,,,,-9.5,-190.09,-4.18,41.2429361343
0.068958312273,0.00612056069076,-0.946957945824,45.9387481213,,,,,-8.56,-188.95,-5.04,41.2433040142
0.075894959271,0.0280712787062,-0.947856485844,45.9411461353,,,,,-3.71,-187.11,-5.77,41.2436690331
0.0663408786058,0.0371392071247,-0.962057888508,45.9435760975,,,,,-2.27,-186.53,-5.46,41.2445790768
0.0546806976199,0.0361117348075,-0.959696531296,45.9459722042,,,,,-7.03,-184.07,-4.76,41.2449719906
0.065208978951,0.0553555488586,-0.934915006161,45.9821350574,,,,,-8.45,-182.74,-4.94,41.2453360558
0.0765447989106,0.0710776075721,-0.920175433159,45.9845740795,,,,,-5.1,-180.02,-4.64,41.2457029819
0.0695129036903,0.0365738496184,-0.943510472775,45.9869701862,,,,,-1.88,-179.14,-3.65,41.2460680008
0.0698800683022,0.0188525412232,-0.958826899529,45.9894881248,,,,,0.46,-177.75,-0.67,41.2469761372
0.0789773091674,0.0360179170966,-0.948008239269,45.9918911457,,,,,-4.89,-176.06,1.0,41.247369051
0.0803238227963,0.0365566462278,-0.948360204697,46.0301830769,,,,,-8.42,-172.92,0.64,41.2477340698
0.0810695514083,0.0257392358035,-0.971908271313,46.0325820446,,,,,-7.32,-171.24,0.57,41.2481000423
0.0720332190394,0.0194784533232,-0.990336537361,46.0350220203,,,,,-3.19,-167.98,1.86,41.2484641075
0.0657062903047,0.0368585437536,-0.979382157326,46.0374171734,,,,,-2.44,-166.61,2.77,41.2493760586
0.0818092375994,0.0298369880766,-0.961384892464,46.0398321152,,,,,-7.26,-161.81,2.79,41.2872731686
0.0853109508753,0.0134408026934,-0.956246078014,46.0794641972,,,,,-7.7,-160.01,1.81,41.2876460552
0.09425894171,0.0110542383045,-0.969374477863,46.0818622112,,,,,-4.83,-156.3,0.52,41.2880129814
0.102054782212,0.014302039519,-0.978116869926,46.0843031406,,,,,-2.88,-154.55,0.51,41.2883770466
0.0969431996346,0.0460801199079,-0.97684442997,46.0867021084,,,,,-2.25,-151.63,1.12,41.2892870903
0.115304835141,0.0617760047317,-0.951290905476,46.0890991688,,,,,-4.51,-148.72,0.9,41.2896800041
0.112216033041,0.0695083588362,-0.944082379341,46.1280012131,,,,,-4.46,-146.04,0.16,41.2900459766
0.108193174005,0.0600119531155,-0.956866264343,46.1303939819,,,,,-3.15,-144.44,-0.01,41.2904100418
0.0981088131666,0.0346825644374,-0.967508614063,46.1328241825,,,,,-1.95,-142.66,0.0,41.2907750607
0.0873903036118,0.0287988949567,-0.954616248608,46.1352341175,,,,,-2.09,-138.65,0.06,41.291683197
0.109476044774,0.026153402403,-0.949838578701,46.1708190441,,,,,-3.33,-133.31,-1.86,41.2920761108
0.1154268682,0.0124412942678,-0.965333640575,46.1732590199,,,,,-1.81,-132.03,-2.48,41.2924411297
0.121067970991,-0.00600653793663,-0.987768888474,46.175661087,,,,,0.58,-130.91,-2.71,41.2928380966
0.11442039907,0.00434100441635,-0.992342710495,46.1780591011,,,,,3.04,-128.15,-1.62,41.2932081223
0.0974249690771,0.0256147328764,-0.997481226921,46.1804430485,,,,,-0.14,-124.68,-0.13,41.2941160202
0.0956384837627,0.0268839057535,-1.02111649513,46.2198600769,,,,,-4.06,-121.37,-0.12,41.2945110798
0.101092129946,0.020643433556,-1.03235673904,46.2222621441,,,,,-0.77,-119.27,-0.9,41.2948741913
0.102350391448,0.0110226292163,-1.02054870129,46.2247011662,,,,,2.17,-118.32,-0.85,41.2952392101
0.10262028873,0.0193709526211,-1.01345813274,46.2271010876,,,,,4.02,-117.11,-0.4,41.2956030369
0.105618596077,0.0256253350526,-1.00912630558,46.2295000553,,,,,0.84,-113.94,0.76,41.2965149879
0.105399169028,0.027857741341,-1.01278710365,46.2694611549,,,,,-6.59,-108.61,-1.56,41.2969081402
0.097674459219,0.0157019291073,-1.02506053448,46.2718570232,,,,,-4.04,-107.42,-3.02,41.2972722054
0.104474686086,0.017730595544,-1.01706087589,46.2742960453,,,,,0.62,-106.34,-4.11,41.2976381779
0.105029433966,0.0460583344102,-0.999222755432,46.2766900063,,,,,7.41,-104.2,-4.06,41.2980010509
0.100734494627,0.0328768864274,-1.01468813419,46.2790780067,,,,,6.21,-102.86,-3.16,41.3359131813
0.108135282993,0.0113277044147,-1.03226685524,46.3174631596,,,,,-4.04,-99.54,-1.98,41.3363091946
0.0970164984465,0.0193913597614,-1.03833699226,46.3198611736,,,,,-3.34,-98.85,-2.09,41.3366751671
0.0913105159998,0.0328219607472,-1.03410124779,46.3222620487,,,,,4.48,-97.57,-0.84,41.3370411396
0.102670885623,0.0271485839039,-1.01814126968,46.3246991634,,,,,7.02,-96.49,0.93,41.3374052048
0.0999602302909,0.0178898815066,-1.01403772831,46.3612511158,,,,,2.58,-93.41,4.97,41.3383171558
0.0947131067514,0.01310181804,-1.00622916222,46.3636910915,,,,,-6.22,-90.92,6.21,41.3387110233
0.10179798305,0.0183330718428,-1.01552665234,46.3660941124,,,,,-4.85,-89.37,4.83,41.3390750885
0.0923395678401,0.00751306675375,-1.02688598633,46.3684930801,,,,,-1.19,-88.42,4.37,41.3394401073
0.0968677029014,-0.0144374202937,-1.0365126133,46.3708970547,,,,,2.16,-85.05,4.93,41.3398041725
0.112370684743,-0.00817128829658,-1.03194200993,46.4100501537,,,,,-0.07,-83.01,5.4,41.3407301903
0.108877398074,0.0198763962835,-1.01545262337,46.4124472141,,,,,-7.28,-79.25,3.59,41.3411221504
0.114820539951,0.000632476061583,-1.03767251968,46.4148960114,,,,,-5.37,-78.95,2.33,41.3414881229
0.12531490624,-0.00976060889661,-1.06787371635,46.4172949791,,,,,0.57,-77.17,0.93,41.3418540955
0.128070741892,0.00628231652081,-1.08019375801,46.4196920395,,,,,1.26,-75.42,0.92,41.342220068
0.122104868293,0.00469115749002,-1.05987131596,46.4593141079,,,,,-3.25,-71.08,1.04,41.343170166
0.10487716645,0.00607568956912,-1.04559159279,46.4617140293,,,,,-5.79,-69.05,-0.29,41.3435640335
0.112892925739,0.00521902553737,-1.04845118523,46.4641671181,,,,,-1.21,-68.69,-1.75,41.3439290524
0.116053730249,-0.00256263464689,-1.06626212597,46.4665620327,,,,,1.16,-67.78,-2.0,41.3442931175
0.101574212313,-0.00589023437351,-1.07566308975,46.4689610004,,,,,-0.02,-63.53,-1.54,41.3446581364
0.0879483371973,-0.0042098518461,-1.09192144871,46.5077610016,,,,,-2.62,-61.06,-1.38,41.3455691338
0.0882949829102,0.00267624855042,-1.10358023643,46.5101602077,,,,,-1.75,-58.88,-2.32,41.3459620476
0.0906032174826,-0.00663233920932,-1.11183059216,46.512556076,,,,,2.45,-59.32,-2.52,41.3463261127
0.0827987492085,-0.00438523851335,-1.12612342834,46.5149970055,,,,,7.75,-58.11,-1.49,41.3466911316
0.0909151658416,0.00411086715758,-1.14131999016,46.5506691933,,,,,6.47,-56.04,-0.39,41.3470571041
0.102731123567,0.00804701633751,-1.15983450413,46.5530970097,,,,,-0.95,-51.97,1.55,41.382764101
0.0928943753242,0.0202749092132,-1.15092670918,46.5554959774,,,,,-2.34,-51.28,1.76,41.3831942081
0.0873145014048,0.00564904138446,-1.13276457787,46.5582151413,,,,,5.59,-51.92,1.4,41.3835589886
0.0890827178955,-0.011273579672,-1.12250101566,46.5606100559,,,,,8.86,-50.91,1.6,41.3839251995
0.0964464247227,-0.00846617855132,-1.10819518566,46.5997982025,,,,,6.53,-46.44,2.65,41.3842890263
0.102389708161,-0.0187965277582,-1.10772228241,46.6021931171,,,,,1.91,-44.31,2.82,41.38519907
0.0930881649256,-0.048670373857,-1.12302815914,46.6046390533,,,,,-0.69,-43.68,0.13,41.3855931759
0.0924550890923,-0.0422404706478,-1.13355302811,46.6070392132,,,,,4.21,-43.82,-0.63,41.3859570026
0.0889336392283,-0.00172121450305,-1.12409245968,46.6094369888,,,,,12.13,-41.59,0.24,41.3863220215
0.0871969610453,0.00586374662817,-1.13232016563,46.6492230892,,,,,11.29,-39.52,1.63,41.3866870403
0.081018678844,-0.0127782393247,-1.13283872604,46.6516191959,,,,,-0.01,-38.08,3.25,41.387597084
0.0661677122116,-0.0191357564181,-1.12326753139,46.6540560722,,,,,0.11,-39.03,2.57,41.3879899979
0.0700784921646,-0.0230386015028,-1.1215775013,46.6564450264,,,,,6.99,-38.87,2.07,41.388354063
0.0791298896074,-0.0352569818497,-1.13016068935,46.6936991215,,,,,9.43,-36.85,2.99,41.3887200356
0.0841805934906,-0.0534521788359,-1.13368988037,46.6961100101,,,,,9.04,-34.08,4.4,41.389083147
0.0902213603258,-0.0469438880682,-1.12809360027,46.6985089779,,,,,2.12,-30.63,6.16,41.3899981976
0.0922731682658,-0.0236512776464,-1.12690508366,46.7009060383,,,,,2.07,-32.61,2.71,41.390392065
0.0791609659791,-0.0178602654487,-1.11791598797,46.7033450603,,,,,5.57,-32.13,1.48,41.3907570839
0.0764668732882,-0.0209512989968,-1.09972941875,46.7398700714,,,,,8.02,-30.18,0.94,41.3911221027
0.0802312046289,-0.0332545638084,-1.09512770176,46.7422711849,,,,,6.17,-24.79,1.3,41.3914861679
0.0874288603663,-0.0320009887218,-1.10024094582,46.7448451519,,,,,3.47,-23.37,1.39,41.3924000263
0.0866000875831,-0.0325300171971,-1.10319626331,46.7472469807,,,,,5.5,-26.48,-0.36,41.39281106
0.0765037611127,-0.0158560629934,-1.09184551239,46.7496511936,,,,,10.11,-26.0,-0.62,41.3931810856
0.0799368694425,-0.0338020399213,-1.09291577339,46.7897090912,,,,,9.26,-23.98,-0.14,41.3935461044
0.0795361325145,-0.0269735511392,-1.10420620441,46.7921080589,,,,,6.32,-21.68,0.4,41.4287321568
0.0683085694909,-0.0105055440217,-1.09865224361,46.7945439816,,,,,1.14,-19.84,0.59,41.4296500683
0.0485322512686,-0.021549237892,-1.09692215919,46.7969431877,,,,,6.73,-22.32,0.0,41.4300420284
0.0607448592782,-0.0245819259435,-1.09829652309,46.7993431091,,,,,8.39,-21.46,0.16,41.4304070473
0.0889137834311,-0.0343370661139,-1.09936547279,46.8389980793,,,,,7.66,-19.53,0.51,41.4307720661
0.0717228204012,-0.0254219044,-1.06349635124,46.8413980007,,,,,1.64,-15.62,0.84,41.4311380386
0.0662561655045,-0.0398945137858,-1.0530936718,46.8441200256,,,,,-0.5,-15.26,0.59,41.4320480824
0.0968463122845,-0.0599944517016,-1.07639610767,46.8465261459,,,,,4.59,-17.35,-0.25,41.4324409962
0.0926432833076,-0.0531942695379,-1.08644890785,46.8837170601,,,,,7.04,-16.5,-0.17,41.4328410625
0.080497674644,-0.033814266324,-1.07408154011,46.8861260414,,,,,5.96,-12.13,0.46,41.4332251549
0.0913382172585,-0.0349546298385,-1.07033455372,46.8885250092,,,,,3.16,-10.41,0.67,41.4335930347
0.0830019414425,-0.0474655330181,-1.08952069283,46.8909220695,,,,,-1.1,-10.59,0.48,41.4345021248
0.0696113184094,-0.0325549468398,-1.10156786442,46.8933691978,,,,,4.26,-12.03,0.04,41.4348950386
0.053440220654,-0.0260536950082,-1.10496306419,46.929983139,,,,,6.48,-10.34,0.22,41.4352610111
0.0578587651253,-0.0371682494879,-1.10938441753,46.9323790073,,,,,7.29,-8.18,0.51,41.4356241226
0.0781044885516,-0.0465962961316,-1.1114025116,46.9348180294,,,,,4.3,-6.08,0.86,41.4359881878
0.0817778855562,-0.0533207058907,-1.1197078228,46.9372131824,,,,,2.29,-6.9,0.68,41.4368951321
0.084907092154,-0.0270773041993,-1.11429512501,46.9396100044,,,,,3.44,-9.1,0.21,41.4372870922
0.0891016200185,-0.0176191870123,-1.11466705799,46.9795610905,,,,,6.14,-7.7,0.51,41.4376552105
0.0828128382564,-0.0237054694444,-1.10021400452,46.9819581509,,,,,9.07,-4.15,1.65,41.4380199909
0.0907954052091,-0.01872763969,-1.10686314106,46.9843900204,,,,,8.29,-3.62,2.0,41.4383821487
0.0839240029454,-0.00454503297806,-1.12802743912,46.9867880344,,,,,4.35,-5.43,1.78,41.4392910004
0.0700061097741,-0.0198069345206,-1.12393510342,46.9891831875,,,,,2.77,-5.73,1.45,41.4768300056
0.0745907649398,-0.0380302816629,-1.11273241043,47.0290591717,,,,,5.27,-2.03,2.08,41.4771959782
0.0898667424917,-0.0320806056261,-1.10331535339,47.0314571857,,,,,6.33,-0.24,2.52,41.4775631428
0.0855210348964,-0.00941287726164,-1.08290040493,47.0338921547,,,,,6.48,-0.11,2.56,41.4779281616
0.0695590376854,-0.00880735553801,-1.08579969406,47.0362889767,,,,,5.86,-1.12,2.17,41.4788401127
0.0738311260939,-0.0437713637948,-1.11036837101,47.072122097,,,,,6.31,-0.19,1.08,41.4792339802
0.0907050967216,-0.0574085786939,-1.12009096146,47.074570179,,,,,6.68,1.79,1.03,41.479598999
0.107709370553,-0.0323117002845,-1.10955095291,47.0769720078,,,,,6.78,4.15,0.84,41.4799640179
0.0956662371755,-0.0107062105089,-1.09501254559,47.079365015,,,,,6.88,3.82,0.6,41.480328083
0.0829205363989,-0.0155607815832,-1.08142614365,47.0817630291,,,,,8.95,2.27,0.12,41.4812400341
0.0820938199759,-0.027679970488,-1.07571935654,47.1213161945,,,,,11.61,3.25,0.09,41.48163414
0.082888379693,-0.0463453829288,-1.09872066975,47.1237530708,,,,,10.1,5.56,-0.28,41.4819982052
0.0886997953057,-0.0539459362626,-1.11124050617,47.1261560917,,,,,8.06,5.88,-0.7,41.4823620319
0.0947678163648,-0.0464887022972,-1.09599494934,47.1285550594,,,,,6.25,5.09,-1.42,41.4827260971
0.0941794216633,-0.0600925013423,-1.07371044159,47.1309540272,,,,,7.75,4.87,-1.38,41.4836761951
0.0810430049896,-0.0418275296688,-1.06308591366,47.1696560383,,,,,14.03,7.01,-0.58,41.484069109
0.087581679225,-0.0361892580986,-1.07656431198,47.1720590591,,,,,13.05,7.3,-0.79,41.4844331741
0.0869067981839,-0.043038778007,-1.08126199245,47.1745011806,,,,,6.92,6.56,-1.81,41.4847970009
0.0798297673464,-0.0323139429092,-1.06732404232,47.1769020557,,,,,4.69,6.25,-2.07,41.4851620197
0.0792407765985,-0.0335638672113,-1.07462894917,47.1792981625,,,,,6.91,7.57,-1.16,41.4860742092
0.0762628763914,-0.0331771150231,-1.08656907082,47.2188119888,,,,,14.03,9.24,0.37,41.4864649773
0.0593156889081,-0.0166858080775,-1.08806943893,47.2212100029,,,,,14.13,8.12,0.69,41.4868299961
0.0482388362288,-0.0186993833631,-1.07990801334,47.2236540318,,,,,10.86,7.14,0.37,41.487195015
0.0442541092634,-0.0235607419163,-1.07360482216,47.226047039,,,,,7.13,6.72,0.1,41.4875600338
0.0544499382377,-0.0223479289562,-1.07777297497,47.2620520592,,,,,4.69,8.44,0.35,41.5261449814
0.0616913959384,-0.0413132309914,-1.07254874706,47.2644929886,,,,,13.6,10.04,1.52,41.526540041
0.048782646656,-0.0667548775673,-1.05859315395,47.2668931484,,,,,14.34,9.19,1.48,41.5269072056
0.0455594286323,-0.0695015415549,-1.04032707214,47.2692911625,,,,,9.06,8.34,0.83,41.5272710323
0.0593642517924,-0.0590470954776,-1.03577673435,47.2716879845,,,,,5.53,9.21,0.52,41.5276360512
0.0578417554498,-0.0520448610187,-1.0476205349,47.3104870319,,,,,3.75,11.97,0.27,41.5285460949
0.0545680075884,-0.0410600602627,-1.04616367817,47.3129210472,,,,,7.86,12.45,0.41,41.528938055
0.0639518648386,-0.0371101051569,-1.02507472038,47.3153190613,,,,,8.89,11.11,0.54,41.5293021202
0.0818125233054,-0.038975931704,-1.02067661285,47.3177220821,,,,,7.21,11.13,0.65,41.5296671391
0.0939371436834,-0.0453039184213,-1.00611913204,47.3201210499,,,,,5.34,11.79,0.8,41.5300300121
0.097858004272,-0.0606879964471,-1.01250064373,47.3607711792,,,,,4.07,13.46,1.22,41.5309410095
0.10141967237,-0.074453137815,-1.00991868973,47.3632040024,,,,,4.69,12.55,1.52,41.5313360691
0.0980318635702,-0.0660753026605,-0.989423155785,47.3656041622,,,,,3.53,12.3,1.57,41.531701088
0.0831588953733,-0.0678836777806,-0.975785315037,47.3680021763,,,,,2.46,12.66,1.66,41.5320670605
0.0724841803312,-0.0880435332656,-0.992544054985,47.370401144,,,,,3.83,14.24,2.03,41.532430172
0.0752331763506,-0.0639089420438,-0.998648524284,47.407957077,,,,,7.55,14.52,2.04,41.5333750248
0.0811070799828,-0.0418077781796,-0.99206662178,47.4103569984,,,,,5.63,13.85,1.04,41.5337650776
0.0687211677432,-0.0452582761645,-0.995705962181,47.412758112,,,,,2.6,14.15,0.32,41.534126997
0.0598224624991,-0.0553012117743,-1.0072581768,47.4151990414,,,,,0.19,15.89,-0.46,41.5344932079
0.0735148116946,-0.0616146847606,-1.0133177042,47.4507591724,,,,,2.58,16.5,-0.29,41.5348570347
0.0929289460182,-0.0643057450652,-1.01795887947,47.4532032013,,,,,10.06,15.84,0.48,41.5357701778
0.0790719240904,-0.0746241882443,-1.02565801144,47.4556040764,,,,,4.64,14.22,0.2,41.5361640453
0.0765731334686,-0.0726893767715,-1.01412045956,47.4580051899,,,,,0.81,14.48,-0.17,41.5365281105
0.0980387479067,-0.0389962419868,-0.983984827995,47.4604070187,,,,,-0.81,14.82,-0.23,41.5368931293
0.1027264148,-0.0137269217521,-0.986863017082,47.4997980595,,,,,4.44,14.64,0.96,41.5372560024
0.0876601561904,-0.00708778761327,-0.998903274536,47.5021970272,,,,,8.21,14.03,2.01,41.5726060867
0.0971268191934,-0.00324764661491,-1.00741779804,47.5046350956,,,,,3.81,12.41,4.3,41.5730381012
0.110615290701,-0.0158447567374,-1.01181149483,47.5070331097,,,,,-0.47,12.06,4.5,41.5734040737
0.090337485075,-0.0200868304819,-0.99926006794,47.5094261169,,,,,-2.45,11.38,4.85,41.5737700462
0.0734804347157,0.00235029496253,-0.987885951996,47.5495510101,,,,,0.2,11.18,5.24,41.5741350651
0.0708626434207,0.0153169315308,-0.989644169807,47.5519521236,,,,,4.61,11.78,6.25,41.5750432014
0.0702544376254,0.00825872458518,-1.00036740303,47.5543870926,,,,,1.53,12.36,6.51,41.5754351616
0.0727738291025,-0.00819746591151,-1.02300667763,47.5567882061,,,,,-2.48,11.09,5.81,41.5758001804
0.0735035911202,-0.0157845374197,-1.02936756611,47.5591812134,,,,,-1.99,10.35,5.3,41.5761640072
0.0755665674806,-0.0034312736243,-1.01543188095,47.5974991322,,,,,0.94,11.15,4.47,41.5765280724
0.0832046568394,-0.00649819336832,-0.97241294384,47.599902153,,,,,1.02,12.83,4.01,41.5774371624
0.0868270844221,-0.00796859152615,-0.970170557499,47.6022980213,,,,,-1.39,14.97,1.91,41.5778300762
0.0754371955991,-0.0237642619759,-0.987375617027,47.6047511101,,,,,-0.24,13.62,1.21,41.5781950951
0.088839828968,-0.0477355271578,-0.990890145302,47.6409380436,,,,,3.27,11.39,0.6,41.5785582066
0.0886252373457,-0.0425165891647,-0.984676361084,47.6433701515,,,,,2.85,12.12,0.73,41.5789241791
0.081945553422,-0.0300707984716,-0.967726230621,47.6457681656,,,,,-2.7,15.9,1.04,41.5798339844
0.0879361778498,-0.0156817231327,-0.967269062996,47.6481621265,,,,,-4.46,16.46,0.94,41.5802261829
0.0919511839747,-0.0181078854948,-0.969875633717,47.6505560875,,,,,2.28,12.61,0.95,41.5805900097
0.093345798552,-0.0292721632868,-0.981328845024,47.690059185,,,,,4.62,11.46,1.31,41.5809559822
0.107575580478,-0.0313544198871,-0.983392357826,47.6924581528,,,,,0.11,13.36,2.27,41.5813231468
0.122076839209,-0.0315388515592,-0.965138554573,47.6949009895,,,,,-5.02,15.2,2.59,41.5822169781
0.125658735633,-0.043831564486,-0.959594368935,47.6972980499,,,,,-6.29,14.13,2.52,41.5826091766
0.128104999661,-0.0224887821823,-0.96311968565,47.6996951103,,,,,-1.56,12.41,2.6,41.582998991
0.117628157139,-0.0131928324699,-0.966228723526,47.7393460274,,,,,3.1,12.05,3.14,41.6191120148
0.102440953255,-0.00699964724481,-0.973302483559,47.7417461872,,,,,0.55,13.44,3.34,41.6194801331
0.10148280859,-0.0211768746376,-0.980339646339,47.7441861629,,,,,-7.91,15.19,3.19,41.6203920841
0.0838102400303,-0.0313845425844,-0.989077806473,47.7465820312,,,,,-7.17,12.35,2.8,41.6207849979
0.0677096098661,-0.0227560754865,-1.00572443008,47.748978138,,,,,0.58,10.39,3.04,41.6211490631
0.0500436276197,-0.0418563336134,-1.01741099358,47.7876570225,,,,,2.48,11.3,3.27,41.621514082
0.0357664451003,-0.0329212024808,-1.00982403755,47.7900800705,,,,,1.93,12.94,3.42,41.6219010353
0.0308442506939,-0.0203043352813,-1.00897455215,47.7924849987,,,,,-2.68,13.97,3.28,41.6228580475
0.0316433496773,-0.0485215485096,-1.02238714695,47.7949261665,,,,,-2.6,9.04,3.08,41.6232540607
0.030877398327,-0.048654012382,-1.04423451424,47.8306651115,,,,,-1.12,9.2,3.06,41.6236200333
0.0344172529876,-0.00931341014802,-1.02417290211,47.83309412,,,,,0.65,13.17,2.86,41.6239840984
0.0344687364995,0.00593941099942,-1.00806093216,47.8354971409,,,,,1.28,14.69,2.69,41.6243491173
0.0300122834742,0.0020101480186,-0.993473172188,47.8379001617,,,,,2.61,13.01,2.65,41.6252601147
0.0339922979474,-0.01680528,-0.988628745079,47.8402941227,,,,,2.59,9.66,2.7,41.6256539822
0.0480665229261,-0.0307962726802,-0.980508565903,47.879817009,,,,,0.33,11.6,2.25,41.6260201931
0.0411218106747,-0.0453016534448,-0.96542096138,47.8822062016,,,,,0.06,13.85,1.88,41.6263830662
0.0342819914222,-0.0454263836145,-0.953100264072,47.8846449852,,,,,1.25,15.36,1.64,41.6267461777
0.0380042493343,-0.00773432292044,-0.949811041355,47.887045145,,,,,6.75,14.09,2.0,41.627655983
0.0272746048868,-0.00501434318721,-0.969435095787,47.8894381523,,,,,8.0,10.98,2.5,41.6280481815
0.0338442698121,-0.034668572247,-0.990028142929,47.9292070866,,,,,5.31,12.09,2.18,41.6284110546
0.0427855327725,-0.0367075502872,-0.985988259315,47.9316031933,,,,,2.83,13.52,1.71,41.6287760735
0.044650696218,-0.0244817938656,-0.994558215141,47.934043169,,,,,2.54,14.38,1.39,41.6291410923
0.0596376210451,-0.0199314169586,-0.972674965858,47.9364299774,,,,,9.86,11.88,2.3,41.6300530434
0.0565554127097,-0.0180371049792,-0.941230714321,47.9736640453,,,,,10.02,12.16,2.33,41.6673221588
0.038532756269,-0.0253485683352,-0.950814604759,47.9760670662,,,,,5.11,13.49,1.69,41.667689085
0.0371492579579,-0.0277763064951,-0.971814751625,47.9784619808,,,,,1.84,13.54,1.47,41.6680541039
0.0503759868443,-0.00213392078876,-0.9631934762,47.9808599949,,,,,-0.24,13.05,1.49,41.668418169
0.0550328567624,0.00447532720864,-0.967213213444,47.9832980633,,,,,1.48,11.93,2.2,41.6693320274
0.052819378674,-0.0215279925615,-0.9653865695,48.0199069977,,,,,9.03,13.19,3.1,41.6697261333
0.0494196042418,-0.0355200320482,-0.940643966198,48.0223040581,,,,,8.33,13.02,3.14,41.6700911522
0.0472816154361,-0.0138324890286,-0.925740718842,48.024736166,,,,,5.74,12.27,3.11,41.670456171
0.0546860322356,-0.013812718913,-0.946473419666,48.0271291733,,,,,-0.08,10.73,2.9,41.6708211899
0.0563677810133,-0.0171040147543,-0.956959486008,48.0295341015,,,,,-0.68,10.95,2.82,41.6717331409
0.044117577374,-0.0080625154078,-0.948272645473,48.0697231293,,,,,6.86,13.04,2.81,41.6721251011
0.0327050164342,-0.00935136713088,-0.949821531773,48.0721240044,,,,,8.26,12.5,2.91,41.6724891663
0.0452890656888,-0.00903826765716,-0.971054136753,48.0745611191,,,,,5.31,10.49,2.84,41.6728870869
0.0643856525421,-0.024193925783,-0.976451396942,48.0769581795,,,,,2.64,10.39,2.59,41.6732540131
0.0588840544224,-0.0322746858001,-0.964594185352,48.0793561935,,,,,0.29,12.75,1.84,41.6741621494
0.0518022365868,-0.0318329781294,-0.953647971153,48.1202871799,,,,,1.94,14.14,1.45,41.6745541096
0.0513782799244,-0.0427073016763,-0.934343695641,48.1226789951,,,,,3.01,12.47,1.58,41.6749191284
0.0486746169627,-0.0155100189149,-0.946885943413,48.1251170635,,,,,2.96,11.8,1.71,41.6752841473
0.0414688959718,0.00824906863272,-0.964348435402,48.1275191307,,,,,3.43,13.04,1.71,41.6756491661
0.0424257740378,-0.00879817269742,-0.991196751595,48.1636781693,,,,,3.61,14.11,1.54,41.6765580177
0.051998898387,-0.0223757568747,-0.990447163582,48.1660900116,,,,,0.34,13.23,0.37,41.6769499779
0.0553458556533,-0.0208408478647,-0.993762969971,48.1684861183,,,,,-0.76,12.3,-0.06,41.6773161888
0.0426064990461,-0.0248151477426,-0.988313674927,48.1708831787,,,,,1.63,12.89,-0.44,41.6776812077
0.0352070629597,-0.0394112244248,-0.980132341385,48.1733191013,,,,,4.69,13.98,-0.32,41.6780459881
0.0424440391362,-0.0427973568439,-0.971122562885,48.2098929882,,,,,7.81,14.7,0.02,41.7156012058
0.0448476970196,-0.0297630298883,-0.971214056015,48.2122921944,,,,,2.29,12.91,-0.66,41.715996027
0.0370079725981,-0.0139853339642,-0.974418342113,48.2147321701,,,,,-2.93,13.27,-1.67,41.7163610458
0.0423937439919,0.00107256136835,-0.974009990692,48.2171301842,,,,,-1.95,14.7,-1.54,41.7167270184
0.0423470214009,0.00936580263078,-0.961047172546,48.2195281982,,,,,4.43,16.67,0.54,41.7170910835
0.0320224873722,-0.011923391372,-0.955313146114,48.2594740391,,,,,6.1,16.14,1.93,41.7180030346
0.0336930789053,-0.0244848970324,-0.965423107147,48.2618741989,,,,,-2.97,12.8,3.38,41.7184000015
0.0274951513857,-0.00643990375102,-0.990301609039,48.2643091679,,,,,-6.13,13.26,3.02,41.7187640667
0.0320828855038,0.0157912541181,-0.986173272133,48.2667071819,,,,,-5.74,15.6,2.92,41.7191281319
0.0477820858359,-0.00177505798638,-0.961817979813,48.269105196,,,,,-3.22,16.12,3.43,41.719492197
0.0459546223283,-0.0255794990808,-0.951630353928,48.3090491295,,,,,0.25,14.88,4.37,41.7204031944
0.0495915189385,-0.0174967106432,-0.959613740444,48.3114461899,,,,,-1.05,13.83,3.84,41.7207970619
0.0568818449974,-0.0184127818793,-0.975797355175,48.313888073,,,,,-3.01,15.27,2.33,41.7211601734
0.054433234036,-0.0112983789295,-0.987231135368,48.316286087,,,,,-3.35,16.24,1.79,41.7215240002
0.0421876683831,0.0180579293519,-0.987586379051,48.3521029949,,,,,-3.19,17.17,1.22,41.721889019
0.0318598262966,0.0171884316951,-0.991344928741,48.3545501232,,,,,-2.62,17.29,1.0,41.7228300571
0.0339705273509,-0.00978013686836,-0.98263335228,48.356949091,,,,,2.44,17.44,0.49,41.7232291698
0.0387633964419,-0.0261896234006,-0.971155762672,48.3593490124,,,,,3.44,17.35,0.5,41.7235920429
0.0433257184923,-0.0141853895038,-0.955322861671,48.3617479801,,,,,0.72,16.91,0.37,41.7239561081
0.0452101454139,-0.0145513620228,-0.960048913956,48.3998630047,,,,,-2.28,16.93,-0.09,41.7243189812
0.0433809533715,-0.0335619822145,-0.979553103447,48.4022610188,,,,,-4.68,17.54,-1.54,41.7252299786
0.0447565242648,-0.0326916724443,-0.982414960861,48.4047000408,,,,,2.05,17.51,-2.38,41.7256231308
0.0578640252352,-0.00990271009505,-0.977158069611,48.4070930481,,,,,8.23,16.43,-2.06,41.7259860039
0.0613502413034,0.00620176456869,-0.988688588142,48.4094891548,,,,,7.09,16.15,-1.91,41.7263510227
0.0433758571744,-0.00644262414426,-1.0102878809,48.4495751858,,,,,3.43,16.29,-2.0,41.7267160416
0.0375525318086,-0.00918051041663,-1.01712608337,48.4519731998,,,,,-4.49,17.13,-2.53,41.7627720833
0.0434292033315,0.0125232860446,-1.00621831417,48.4544141293,,,,,-0.48,16.56,-1.42,41.7632009983
0.0380606763065,0.011854397133,-1.00187647343,48.4568140507,,,,,2.01,16.19,-0.33,41.7635672092
0.0286333300173,0.00249590352178,-0.985507011414,48.4592111111,,,,,2.51,16.17,0.74,41.7639300823
0.0320407599211,-0.00726911611855,-0.976531386375,48.4986832142,,,,,-2.89,16.29,2.24,41.7642951012
0.0376493558288,-0.00625976920128,-0.984193325043,48.501075983,,,,,-9.92,15.15,2.6,41.7652051449
0.040445946157,-0.00911499001086,-0.988635778427,48.5035099983,,,,,-10.09,13.68,2.66,41.7655980587
0.0394206941128,-0.0130736622959,-0.991202831268,48.505906105,,,,,-4.97,14.61,2.97,41.7659630775
0.0425563082099,-0.0109995622188,-0.985091209412,48.5420470238,,,,,-2.6,15.43,3.16,41.7663271427
0.04691401124,-0.0029723206535,-0.971984803677,48.5445981026,,,,,-1.4,15.67,3.32,41.7666912079
0.046466037631,-0.00564515218139,-0.974180519581,48.5470039845,,,,,-2.67,13.55,3.09,41.7676010132
0.0490199178457,-0.0173514802009,-0.970127880573,48.5494010448,,,,,-7.31,11.8,1.83,41.7679941654
0.0462783798575,-0.0104632154107,-0.9542491436,48.5518000126,,,,,-6.78,13.17,1.5,41.7683579922
0.0420458316803,-0.0177805963904,-0.950543045998,48.5900650024,,,,,-4.95,14.72,1.41,41.7687220573
0.0434394553304,-0.0135052446276,-0.96117401123,48.5924642086,,,,,0.71,15.33,1.71,41.7690870762
0.0412070602179,-0.00876548700035,-0.988857388496,48.594907999,,,,,2.54,14.11,1.85,41.7699930668
0.0349202752113,-0.0122059043497,-0.99987411499,48.5973060131,,,,,-2.44,12.07,1.23,41.7703859806
0.0329799279571,-0.0129132475704,-0.993489861488,48.5997061729,,,,,-5.28,13.07,0.71,41.7707500458
0.0394207090139,0.00727839954197,-0.993207573891,48.6393930912,,,,,-5.87,15.05,0.1,41.7711141109
0.0333882123232,0.00929387845099,-1.00309228897,48.6417911053,,,,,-2.91,15.1,0.08,41.771476984
0.0231592152268,-0.00363620836288,-1.01725935936,48.6442232132,,,,,3.98,13.9,0.34,41.7723860741
0.0158024746925,0.00798037089407,-1.0149409771,48.6466171741,,,,,-0.48,13.71,-0.57,41.7727780342
0.00928339455277,0.00919662602246,-1.02399671078,48.6490170956,,,,,-4.9,13.76,-1.07,41.773168087
0.00334839709103,-0.00769016705453,-1.01928365231,48.6878421307,,,,,-8.01,13.63,-1.4,41.8078570366
0.000382233527489,-0.0139136817306,-1.01375806332,48.6902370453,,,,,-6.61,13.61,-0.88,41.8082251549
-0.00570332631469,-0.000576857477427,-1.01242935658,48.6926300526,,,,,-2.64,14.02,-0.14,41.8091390133
-0.00025200645905,0.0112197846174,-1.0137513876,48.6950700283,,,,,3.16,14.14,1.22,41.8095321655
0.0119553189725,0.00605192035437,-1.02132403851,48.7321000099,,,,,0.33,13.03,0.94,41.8098971844
0.00646800361574,-0.000522959977388,-1.02165865898,48.7345461845,,,,,-6.8,11.54,-0.06,41.8102622032
0.0158733129501,-0.00658711139113,-1.0278660059,48.736946106,,,,,-8.0,12.31,-0.34,41.8106250763
0.041810542345,0.00247723422945,-1.01855039597,48.73934412,,,,,-2.88,15.94,-0.19,41.8115580082
0.038757160306,0.0353679135442,-0.997298836708,48.7417440414,,,,,5.29,16.64,0.03,41.8119530678
0.0277086030692,0.0389803946018,-0.979215502739,48.7796850204,,,,,6.69,13.74,-0.54,41.8123171329
0.0358249209821,0.0106851700693,-0.979504942894,48.7820820808,,,,,4.46,13.17,-1.09,41.8126831055
0.0615504458547,-0.00182034261525,-0.987677812576,48.784525156,,,,,-1.35,15.96,-2.15,41.8130841255
0.0684002190828,0.00457383506,-0.995100736618,48.786921978,,,,,-2.76,18.09,-2.54,41.814002037
0.0630379393697,0.0119429472834,-0.992504954338,48.7893211842,,,,,4.25,17.8,-2.53,41.814396143
0.0601349249482,0.0104748550802,-0.988682866096,48.8294491768,,,,,7.69,16.42,-2.33,41.8147799969
0.0538761615753,0.0123124606907,-0.984636068344,48.8318490982,,,,,9.29,15.83,-2.11,41.8151509762
0.0582933276892,0.0153036173433,-1.00405192375,48.8342862129,,,,,6.36,16.52,-2.3,41.815515995
0.0595334023237,0.0154009256512,-1.01618242264,48.8366820812,,,,,-2.07,16.43,-3.04,41.8164250851
0.0521179847419,0.00972834788263,-1.00754749775,48.8390800953,,,,,-3.23,13.84,-3.0,41.8168201447
0.0540680587292,0.00281334482133,-1.00623106956,48.877423048,,,,,4.98,13.13,-1.78,41.8171842098
0.0591987445951,0.0123463775963,-0.996833562851,48.8798232079,,,,,8.82,14.0,-1.21,41.8175480366
0.0541126802564,0.0166994128376,-1.01431357861,48.8822209835,,,,,8.19,14.9,-1.31,41.8179130554
0.048706933856,0.00614568777382,-1.01171958447,48.8846621513,,,,,4.07,14.09,-1.85,41.8188240528
0.0494915321469,0.0107198152691,-0.999490737915,48.9209060669,,,,,-2.84,12.66,-2.77,41.8578271866
0.0457195304334,0.0191769469529,-1.00808346272,48.9236140251,,,,,0.25,14.15,-2.35,41.8581941128
0.0475531816483,0.0242488626391,-1.01100754738,48.9260230064,,,,,10.07,17.38,-1.58,41.8585581779
0.0479827448726,0.0132073294371,-1.0127518177,48.9284110069,,,,,13.18,17.36,-1.49,41.8589241505
0.0508970431983,0.00373028405011,-1.00883901119,48.930809021,,,,,11.45,14.56,-2.0,41.8598361015
0.0580636635423,0.0121023152024,-1.00127065182,48.9700410366,,,,,4.58,13.38,-2.52,41.8602290154
0.0543273612857,0.028879435733,-1.00296211243,48.9724390507,,,,,2.67,15.32,-2.36,41.8605940342
0.0476263836026,0.0339083597064,-0.99413895607,48.9748880863,,,,,5.11,15.71,-2.12,41.8609571457
0.0439954139292,0.017495656386,-0.993706941605,48.9772861004,,,,,8.83,15.07,-1.8,41.8613221645
0.0396763011813,0.0109515693039,-1.00701773167,48.9796760082,,,,,14.38,12.05,-1.37,41.8622291088
0.047253344208,0.0166817437857,-1.01102471352,49.0192790031,,,,,6.03,10.75,-1.4,41.862621069
0.0513442233205,0.0119776427746,-1.00580692291,49.0216770172,,,,,1.33,10.96,-1.53,41.8630211353
0.0508948117495,0.00299528799951,-1.00712013245,49.024118185,,,,,-1.67,10.72,-1.29,41.8633890152
0.0504643060267,0.00376882776618,-1.01371634007,49.0265140533,,,,,1.06,10.41,-0.9,41.8637521267
0.0450481660664,0.00981206446886,-1.01964151859,49.0289092064,,,,,9.42,10.14,0.12,41.8646640778
0.046773225069,0.0103543829173,-1.01177382469,49.0675930977,,,,,10.1,9.41,0.37,41.8650581837
0.0442593917251,-0.000122861936688,-1.00137615204,49.0699920654,,,,,1.75,7.61,-0.27,41.8654220104
0.0370757654309,5.04776835442e-07,-1.00728154182,49.0723881721,,,,,-1.81,7.19,-0.67,41.8657870293
0.0361283645034,0.00617388635874,-1.01369428635,49.0748400688,,,,,-2.69,7.58,-1.02,41.8661501408
0.0447435975075,0.0216495413333,-1.00275826454,49.1108181477,,,,,3.57,9.87,-1.42,41.8670601845
0.0451369434595,0.0167368780822,-0.997918725014,49.1132512093,,,,,12.96,8.55,-2.46,41.8674530983
0.0196832455695,0.00783949904144,-0.999818205833,49.115650177,,,,,11.55,6.99,-2.85,41.8678171635
0.014910582453,0.00708173587918,-1.00056767464,49.1180520058,,,,,5.51,6.05,-3.46,41.868183136
0.0246757473797,0.014636574313,-1.00533866882,49.1204500198,,,,,3.23,7.1,-3.56,41.8685460091
0.0225946642458,0.0288007054478,-1.02303659916,49.1597921848,,,,,7.17,9.17,-3.28,41.9060680866
0.023760728538,0.0284719448537,-1.03810203075,49.1622040272,,,,,10.21,8.35,-2.99,41.9064640999
0.0289178211242,0.0152232628316,-1.04579567909,49.1646590233,,,,,12.38,7.18,-2.7,41.9068281651
0.026568248868,0.00335926376283,-1.04884541035,49.167057991,,,,,11.07,5.98,-2.38,41.9071931839
0.0243524946272,-0.00161294266582,-1.04967546463,49.1694521904,,,,,7.62,6.1,-2.39,41.9075570107
0.0285801589489,0.00657157599926,-1.05260431767,49.2091760635,,,,,0.78,6.44,-2.69,41.9084692001
0.0287209302187,0.0123936906457,-1.05430161953,49.2115690708,,,,,5.68,6.29,-2.13,41.9088630676
0.0200296957046,0.0083560179919,-1.05152356625,49.2140190601,,,,,10.12,6.61,-1.86,41.9092271328
0.0173010751605,0.0144963171333,-1.05596899986,49.2164120674,,,,,13.28,7.02,-1.83,41.9095931053
0.0252557266504,0.0224105138332,-1.05933821201,49.2536540031,,,,,11.83,7.02,-2.66,41.9099600315
0.0261963848025,0.0220448616892,-1.05631184578,49.2560560703,,,,,7.84,6.7,-3.26,41.9108710289
0.0216113496572,0.0211965348572,-1.05897605419,49.258450985,,,,,2.68,7.41,-3.37,41.9112660885
0.0259625799954,0.0263171661645,-1.05747926235,49.260846138,,,,,6.07,8.69,-2.73,41.9116311073
0.0295360907912,0.0290142353624,-1.0597435236,49.2632842064,,,,,14.5,10.23,-1.42,41.9119951725
0.026257975027,0.0303830038756,-1.04420125484,49.2998239994,,,,,15.9,9.85,-1.02,41.9123601913
0.0246035195887,0.0244158003479,-1.02997946739,49.3022210598,,,,,10.5,7.46,-0.74,41.9133160114
0.0289296060801,0.0266684684902,-1.03655838966,49.3046610355,,,,,2.38,6.47,-0.5,41.9137091637
0.0468684025109,0.0248633865267,-1.03463113308,49.3070590496,,,,,2.24,8.06,0.1,41.9140729904
0.0393532589078,0.00937010161579,-1.0300039053,49.3094570637,,,,,5.37,8.75,0.51,41.9144380093
0.016964033246,0.0056335683912,-1.02595555782,49.3501121998,,,,,11.85,8.29,0.95,41.9148030281
0.0187778864056,0.0166270639747,-1.03048253059,49.3525121212,,,,,12.8,7.12,0.89,41.9157121181
0.0289752501994,0.0240042302758,-1.0330234766,49.3549551964,,,,,4.55,5.01,-0.7,41.916105032
0.0275237970054,0.0192744936794,-1.028840065,49.3573491573,,,,,1.73,5.58,-1.3,41.9164700508
0.0208955146372,0.0143539141864,-1.032299757,49.3597450256,,,,,2.09,7.87,-1.79,41.916834116
0.014374256134,0.00951032154262,-1.03276097775,49.3989260197,,,,,5.42,8.59,-1.66,41.9171991348
0.0109932748601,0.000850597396493,-1.03184175491,49.4013221264,,,,,12.94,7.77,-1.26,41.9510991573
0.00997624639422,-0.00530032534152,-1.03410840034,49.4037640095,,,,,12.89,5.37,-1.79,41.9514920712
0.00577517971396,-0.00354167539626,-1.02027356625,49.406165123,,,,,5.35,5.36,-2.71,41.95185709
0.013622819446,0.00588273443282,-1.02036225796,49.4436500072,,,,,2.28,6.47,-2.97,41.9522211552
0.0169469136745,0.0178783107549,-1.02531051636,49.4460411072,,,,,3.97,8.49,-2.8,41.952586174
0.0112498635426,0.0167420152575,-1.02660393715,49.4484341145,,,,,8.41,8.44,-2.63,41.9535450935
0.0132971378043,0.0186467487365,-1.03373587132,49.4508261681,,,,,16.64,5.47,-2.44,41.9539391994
0.0239055026323,0.0294444877654,-1.0327488184,49.4532601833,,,,,13.83,5.26,-2.4,41.9543030262
0.0222408734262,0.0330537483096,-1.03663778305,49.4898970127,,,,,4.49,6.0,-1.82,41.954668045
0.0198996961117,0.0192556772381,-1.02579391003,49.4922890663,,,,,1.27,6.29,-1.33,41.9550311565
0.0188498906791,0.0122771430761,-1.00789666176,49.4947240353,,,,,3.07,5.74,-0.58,41.9559390545
0.0185322221369,0.00853480957448,-1.00959777832,49.4971179962,,,,,9.43,5.4,-0.67,41.9563331604
0.0191345456988,0.00199128873646,-1.02679479122,49.4995100498,,,,,9.3,6.01,-1.87,41.9566981792
0.0200453363359,0.0056207831949,-1.0339204073,49.5394849777,,,,,5.79,5.97,-2.6,41.957062006
0.0227381438017,0.018132025376,-1.02418661118,49.5418770313,,,,,-2.24,4.64,-3.84,41.9574270248
0.0180152300745,0.0187541488558,-1.00934052467,49.5443100929,,,,,-3.88,4.09,-4.13,41.9583380222
0.0197486933321,0.0126276034862,-1.0198341608,49.5467011929,,,,,4.88,5.98,-4.03,41.9587311745
0.0261085089296,0.018346561119,-1.02147638798,49.5490970612,,,,,8.93,6.51,-3.78,41.9590961933
0.0187356825918,0.0177755076438,-1.02032506466,49.5892081261,,,,,10.88,4.5,-3.1,41.9594600201
0.00760004296899,0.010103425011,-1.01332402229,49.5916061401,,,,,8.43,2.62,-2.67,41.9598231316
0.00361068919301,0.00724726729095,-1.02672505379,49.5940420628,,,,,1.46,1.04,-1.69,41.9607319832
0.00454886257648,0.0224101338536,-1.02776014805,49.5964369774,,,,,1.37,3.45,-1.1,41.9611251354
-0.00639804080129,0.0240874383599,-1.02617681026,49.6320950985,,,,,9.05,4.86,-0.78,41.9972071648
-0.0262090303004,0.0127464216202,-1.03689908981,49.6345469952,,,,,12.61,4.18,-0.72,41.9975790977
-0.032318815589,0.0156882125884,-1.03649902344,49.6369462013,,,,,13.86,3.17,-0.69,41.9979431629
-0.0342483744025,0.0146784912795,-1.0446126461,49.6393470764,,,,,8.19,2.89,-0.98,41.9988532066
-0.0354729443789,0.0205487627536,-1.03780424595,49.6417441368,,,,,-2.59,6.1,-2.37,41.9992451668
-0.0355151295662,0.00928702391684,-1.02323377132,49.6797840595,,,,,-1.35,6.26,-2.46,41.9996101856
-0.033753849566,-0.00706100277603,-1.02449595928,49.6821820736,,,,,2.16,5.9,-2.18,41.9999730587
-0.0209715105593,-0.00465474463999,-1.03160881996,49.6846151352,,,,,9.42,5.31,-0.95,42.0003361702
-0.0102731026709,0.00522098317742,-1.01965105534,49.6870090961,,,,,7.23,5.59,-0.37,42.0012471676
-0.00685085915029,0.0144519712776,-1.0147203207,49.6894052029,,,,,-2.84,4.84,-1.0,42.0016400814
0.00425341725349,0.0189942512661,-1.01289212704,49.7295231819,,,,,-6.25,3.92,-1.6,42.0020041466
0.0130170118064,0.019407408312,-1.01235103607,49.7319180965,,,,,-3.26,4.59,-1.53,42.0023682117
0.0267984643579,0.0171425137669,-0.996539831161,49.7343561649,,,,,1.83,6.09,-1.36,42.0027320385
0.033516138792,0.0149141568691,-0.983265995979,49.7367529869,,,,,9.64,8.92,-1.39,42.0036790371
0.0352107584476,0.0219971444458,-0.975398242474,49.7391500473,,,,,1.71,6.78,-3.03,42.0040709972
0.0442414432764,0.0316577702761,-0.971383154392,49.778673172,,,,,-1.77,6.4,-3.43,42.0044360161
0.0672881007195,0.0200971122831,-0.977050900459,49.7810661793,,,,,-2.89,7.41,-3.47,42.0048000813
0.0726022347808,0.0102541018277,-0.97853076458,49.7835052013,,,,,3.19,12.2,-2.8,42.0051660538
0.0541351363063,0.0106764100492,-0.980839729309,49.7858982086,,,,,8.03,13.9,-2.42,42.0060770512
0.0480475500226,0.0139724779874,-0.985289931297,49.8220272064,,,,,12.63,10.82,-2.29,42.0064702034
0.0475947707891,0.0164832230657,-0.997416973114,49.8244700432,,,,,10.08,9.61,-2.45,42.0068349838
0.0448137968779,0.0160730872303,-1.00722742081,49.8268671036,,,,,4.51,11.09,-2.4,42.0071980953
0.0502841286361,0.01444674097,-1.00659394264,49.8292610645,,,,,3.2,13.09,-2.2,42.0075621605
0.0501568764448,0.0193651374429,-0.983705043793,49.831662178,,,,,5.33,15.4,-1.85,42.0467209816
0.0447018146515,0.0132987704128,-0.995844364166,49.8700489998,,,,,9.85,14.19,-1.87,42.0471200943
0.0443129464984,0.00597079098225,-1.02092540264,49.8724451065,,,,,10.4,13.66,-2.13,42.0474860668
0.05433460325,0.00641084462404,-1.02008163929,49.8748810291,,,,,8.09,14.36,-2.22,42.0478510857
0.0644725263119,0.0165459830314,-1.01240503788,49.8772790432,,,,,0.75,15.93,-2.33,42.0482151508
0.0636518895626,0.00559759326279,-1.011500597,49.8796811104,,,,,-1.4,16.21,-2.34,42.0491251945
0.0588625222445,0.00504597462714,-1.00756084919,49.9193491936,,,,,5.63,16.66,-1.3,42.0495181084
0.0637339279056,0.0260933917016,-1.0143712759,49.9217422009,,,,,9.83,17.14,-0.62,42.0498821735
0.0630939826369,0.0244396086782,-1.01866674423,49.9241712093,,,,,11.21,17.4,0.41,42.0502460003
0.0560685545206,0.0164307896048,-1.0464785099,49.9265711308,,,,,7.63,16.84,0.49,42.0506091118
0.0450756512582,0.0345844551921,-1.04858589172,49.928964138,,,,,-1.22,16.1,-0.11,42.0515210629
0.036004036665,0.0480149686337,-1.04759049416,49.9677929878,,,,,-1.44,18.37,-0.25,42.0519151688
0.026694085449,0.0333033800125,-1.04274439812,49.970192194,,,,,6.09,21.77,-0.06,42.0522789955
0.0168364103884,0.0239261072129,-1.05503475666,49.9725871086,,,,,8.17,22.31,-0.36,42.0526649952
0.0150427520275,0.0349105000496,-1.05918824673,49.9750261307,,,,,3.55,21.2,-2.32,42.0530741215
0.0107776056975,0.0433239862323,-1.06162929535,50.0120720863,,,,,-1.22,20.95,-3.56,42.0539941788
0.00288489833474,0.0279379058629,-1.0669490099,50.0145120621,,,,,-3.81,26.04,-4.49,42.0543880463
-0.00209311209619,0.0149385537952,-1.06756973267,50.0169081688,,,,,0.24,28.04,-3.81,42.0547521114
-0.00737382471561,0.0200963597745,-1.06905698776,50.0193030834,,,,,7.8,28.58,-2.75,42.0551171303
-0.00628219544888,0.0264737587422,-1.05573916435,50.021697998,,,,,8.39,27.57,-2.74,42.0554821491
0.00820680055767,0.0119737628847,-1.03433346748,50.0596871376,,,,,4.05,26.59,-3.02,42.0563931465
0.0129230786115,0.0018584150821,-1.02869904041,50.062087059,,,,,0.52,28.84,-2.16,42.0567860603
0.0177437439561,0.00511859916151,-1.04685246944,50.0645241737,,,,,1.73,30.83,-0.56,42.0571510792
0.0224951133132,0.0150886569172,-1.05296564102,50.0669181347,,,,,3.33,30.65,-0.08,42.0575141907
0.0231815613806,0.0381470546126,-1.03944647312,50.0693151951,,,,,5.14,29.56,-0.26,42.0578792095
0.0172878522426,0.0396036356688,-1.02612423897,50.1097431183,,,,,5.07,29.54,-0.59,42.0952351093
0.0145272705704,0.0205058474094,-1.03224515915,50.1121401787,,,,,0.86,31.54,-1.04,42.0956280231
0.0290135610849,0.0164622496814,-1.03405475616,50.1145730019,,,,,-1.65,31.82,-1.14,42.095993042
0.0339789167047,0.023633601144,-1.03152370453,50.116972208,,,,,-5.3,31.77,-1.36,42.0963580608
0.0213951170444,0.034997522831,-1.02789771557,50.1193730831,,,,,-4.9,32.01,-1.29,42.0967240334
0.0115090785548,0.0292948391289,-1.03446650505,50.1574180126,,,,,0.05,33.24,-0.15,42.0976610184
0.00896451063454,0.0291718598455,-1.04239809513,50.1598141193,,,,,2.91,33.45,1.03,42.0980551243
0.0215318221599,0.027929412201,-1.03840661049,50.1622300148,,,,,-2.86,32.49,0.38,42.0984210968
0.0219561494887,0.0293991807848,-1.04348218441,50.1646850109,,,,,-6.76,32.46,-0.59,42.0987861156
0.01394466497,0.0290426630527,-1.04127824306,50.2009210587,,,,,-8.83,33.12,-1.61,42.0991520882
0.0164130907506,0.0117418970913,-1.03720903397,50.2033600807,,,,,-4.55,35.74,-2.53,42.1000599861
0.0182425305247,0.0171787459403,-1.0268163681,50.2057590485,,,,,4.76,36.1,-2.16,42.1004531384
0.0258889012039,0.0331779047847,-1.01108407974,50.2081551552,,,,,2.45,35.47,-2.43,42.1008181572
0.0143636316061,0.033039920032,-1.02117741108,50.2105500698,,,,,-1.92,35.26,-2.97,42.101183176
-0.00124663102906,0.0198232177645,-1.03914833069,50.2499690056,,,,,-9.05,36.99,-3.8,42.1015501022
0.0042440276593,0.019329348579,-1.0480287075,50.2523701191,,,,,-8.88,38.4,-3.51,42.1024570465
0.0135087482631,0.0242392811924,-1.04457426071,50.2548201084,,,,,0.53,39.21,0.06,42.1028981209
0.0238227508962,0.0223651807755,-1.03552937508,50.257215023,,,,,-1.02,37.52,2.47,42.1032671928
0.0220260489732,0.0308749843389,-1.03677809238,50.2596101761,,,,,-4.64,36.97,3.12,42.1036310196
0.0193729829043,0.049035474658,-1.03400790691,50.2992680073,,,,,-8.39,36.83,3.45,42.1039950848
0.0331300199032,0.038493566215,-1.03273046017,50.3016691208,,,,,-10.84,37.19,3.46,42.1049079895
0.0286687444896,0.0193175319582,-1.03774988651,50.3041021824,,,,,-3.79,37.91,2.95,42.1053011417
0.0208698250353,0.0079846996814,-1.0367256403,50.3065021038,,,,,-2.24,38.12,2.6,42.1056640148
0.0375911258161,0.0188631210476,-1.02754640579,50.3089010715,,,,,-2.07,38.24,2.13,42.1060299873
0.0369146391749,0.0242019351572,-1.02177715302,50.3476991653,,,,,-4.64,37.82,0.81,42.1063950062
0.0227569472045,0.00955646671355,-1.02091169357,50.3500990868,,,,,-6.18,37.47,0.09,42.1411540508
0.0185871403664,-0.00150383636355,-1.02218198776,50.352492094,,,,,-7.2,38.87,-1.63,42.1415491104
0.0187622476369,-0.00555734056979,-1.01928913593,50.3549301624,,,,,-5.8,39.99,-1.98,42.1419119835
0.0163997840136,0.00274154171348,-1.0107524395,50.3906171322,,,,,-0.95,40.71,-2.51,42.1422770023
0.0204035453498,0.00198316015303,-1.01407921314,50.3930602074,,,,,1.43,39.77,-2.79,42.1426410675
0.0323387272656,-0.00707220472395,-1.03173828125,50.3954591751,,,,,2.14,37.33,-3.25,42.1435852051
0.0352197624743,-0.00952515564859,-1.03101861477,50.3978581429,,,,,-4.46,38.48,-4.07,42.1439800262
0.0376415401697,-0.000567762181163,-1.01234960556,50.4002530575,,,,,-4.41,39.36,-4.29,42.1443450451
0.030943384394,0.0120448488742,-0.985627055168,50.439797163,,,,,-1.65,39.47,-4.44,42.1447081566
0.0251881368458,0.0209732819349,-0.997473359108,50.4421930313,,,,,7.54,37.49,-4.24,42.1450741291
0.0300032570958,0.0295060630888,-1.01956307888,50.4446241856,,,,,9.28,36.33,-3.38,42.1459841728
0.0333811342716,0.0336227789521,-1.01503765583,50.4470231533,,,,,-0.54,38.02,-2.5,42.146376133
0.0306232441217,0.03150588274,-1.01198709011,50.4494202137,,,,,-5.48,38.88,-2.21,42.1467411518
0.0316845364869,0.0352325215936,-1.0176923275,50.4894170761,,,,,-5.81,38.47,-1.68,42.1471061707
0.0313638970256,0.0322695299983,-1.01620006561,50.4918160439,,,,,-1.68,37.64,-1.18,42.1474699974
0.0317090451717,0.0399939417839,-1.00533151627,50.4942572117,,,,,5.04,37.3,0.15,42.148373127
0.0414527282119,0.0486920252442,-0.97553563118,50.4966490269,,,,,-0.42,38.49,0.98,42.1487669945
0.0336156412959,0.0386239290237,-0.972065269947,50.5336341858,,,,,-10.58,37.24,0.43,42.149130106
0.0298293158412,0.0376348793507,-0.983539700508,50.5360372066,,,,,-12.17,35.66,-0.03,42.1494951248
0.0365320146084,0.0376144573092,-0.983551263809,50.5384349823,,,,,-6.22,33.88,-0.37,42.1498630047
0.0324268825352,0.0347660183907,-0.982450008392,50.5408320427,,,,,-1.5,34.45,-0.17,42.1507701874
0.0277837887406,0.0378973931074,-0.984074234962,50.5432710648,,,,,1.12,35.97,-0.11,42.1511631012
0.0242983028293,0.0371193215251,-0.984608769417,50.5798051357,,,,,-1.53,34.36,-0.67,42.1879911423
0.0319487825036,0.0334148108959,-0.985744953156,50.582201004,,,,,-4.86,30.58,-1.94,42.1883590221
0.0377458408475,0.0471836775541,-0.983415961266,50.5846350193,,,,,-4.05,30.19,-2.22,42.188724041
0.0234794467688,0.0508233383298,-0.999702692032,50.587031126,,,,,1.18,33.27,-1.94,42.1896390915
0.0134431999177,0.043410025537,-1.01336991787,50.5894310474,,,,,6.29,35.2,-1.62,42.1900341511
0.027176681906,0.0312617197633,-1.01740014553,50.6296610832,,,,,7.11,31.99,-1.78,42.1903979778
0.0277323555201,0.018376281485,-1.01782763004,50.6320581436,,,,,5.95,30.2,-1.92,42.1907641888
0.0255823880434,0.0225686151534,-1.01642870903,50.6344971657,,,,,2.32,30.27,-2.02,42.1911270618
0.0306882653385,0.0188037324697,-1.03248608112,50.6368939877,,,,,1.2,31.84,-2.15,42.1920380592
0.0220488812774,0.0296024587005,-1.03684782982,50.6392931938,,,,,6.78,32.57,-2.7,42.1924312115
0.0269471574575,0.0531825646758,-1.02490139008,50.6789600849,,,,,9.95,31.02,-2.76,42.1928241253
0.0331437513232,0.0562988594174,-1.04560124874,50.6813540459,,,,,11.7,28.81,-2.51,42.1931941509
0.0388950966299,0.0563404262066,-1.04892706871,50.6837921143,,,,,8.94,28.95,-2.39,42.1935591698
0.0400327518582,0.0590966045856,-1.04981958866,50.6861879826,,,,,0.66,29.53,-2.38,42.1944692135
0.0289228241891,0.0693518444896,-1.04625654221,50.7235991955,,,,,-0.44,28.16,-2.04,42.1948621273
0.0244317613542,0.0716743171215,-1.05979752541,50.72600317,,,,,7.2,26.53,-1.18,42.1952271461
0.0341648235917,0.0724904537201,-1.06581330299,50.728397131,,,,,10.18,26.45,-0.92,42.195592165
0.0369103774428,0.0593498498201,-1.05248963833,50.7307920456,,,,,10.2,26.6,-1.02,42.1959559917
0.0317034460604,0.0526128485799,-1.05383181572,50.7332270145,,,,,2.07,25.63,-2.02,42.1968660355
0.0292200036347,0.0565760061145,-1.0626142025,50.7700400352,,,,,-4.2,23.29,-2.5,42.1972601414
0.0305278021842,0.0626459047198,-1.07365787029,50.7724421024,,,,,-0.66,23.84,-2.22,42.1976251602
0.0388990789652,0.0698662772775,-1.07275438309,50.7749111652,,,,,6.92,25.65,-2.49,42.1979901791
0.0460076704621,0.0578326359391,-1.0819221735,50.777310133,,,,,7.68,25.56,-3.28,42.1983551979
0.0540501177311,0.0597842931747,-1.08995091915,50.779708147,,,,,2.39,23.28,-5.09,42.2360200882
0.0526644773781,0.061162725091,-1.08249175549,50.8195199966,,,,,-2.12,22.26,-5.44,42.2364161015
0.042558927089,0.0540243536234,-1.07622158527,50.8219370842,,,,,0.29,24.37,-4.15,42.2367801666
0.0459667444229,0.0484787225723,-1.07946491241,50.8243820667,,,,,2.6,25.11,-3.59,42.2371451855
0.0455268323421,0.0532773733139,-1.07144153118,50.8267800808,,,,,4.38,24.83,-3.36,42.237511158
0.0399793088436,0.0807149112225,-1.06604850292,50.8291771412,,,,,4.66,22.01,-3.57,42.2384212017
0.0378161817789,0.0790858417749,-1.06939744949,50.8689761162,,,,,3.15,20.77,-3.54,42.2388150692
0.0386441349983,0.0545422285795,-1.07971394062,50.8713800907,,,,,2.68,21.31,-3.19,42.239180088
0.031499452889,0.0505967065692,-1.08334028721,50.8738291264,,,,,2.35,21.44,-2.84,42.2395441532
0.0290767718107,0.0637652799487,-1.08313918114,50.8762280941,,,,,3.44,19.7,-2.4,42.23990798
0.0434387326241,0.0733992159367,-1.08321380615,50.9120821953,,,,,7.98,17.47,-2.14,42.24081707
0.0461461991072,0.0725871324539,-1.07686138153,50.9145400524,,,,,11.24,16.91,-1.52,42.2412099838
0.0424359887838,0.0585917979479,-1.07475471497,50.9169402122,,,,,9.94,16.76,-1.11,42.2415761948
0.0430614389479,0.0493531897664,-1.09069144726,50.9193360806,,,,,2.81,15.57,-0.47,42.2419400215
0.052500937134,0.0788412168622,-1.07852590084,50.9217281342,,,,,0.17,14.87,-0.34,42.242303133
0.0471587404609,0.0924635529518,-1.06635534763,50.9598491192,,,,,2.49,14.47,-0.24,42.2432479858
0.0343972854316,0.0896167233586,-1.07154476643,50.9622461796,,,,,9.75,14.19,-0.02,42.2436430454
0.0307573396713,0.0825595855713,-1.07616233826,50.9646801949,,,,,7.2,13.35,-0.13,42.2440061569
0.0322450697422,0.0826585590839,-1.06754338741,50.9670791626,,,,,2.57,12.33,-0.43,42.2443699837
0.0383658967912,0.0886866524816,-1.07800161839,50.9694721699,,,,,-4.21,11.36,-1.21,42.2447340488
0.0456588156521,0.0852976962924,-1.08800601959,51.0095300674,,,,,-3.45,11.73,-1.38,42.2456381321
0.0429831333458,0.0805989280343,-1.08588969707,51.0119290352,,,,,3.38,12.51,-0.76,42.2459900379
0.0483248531818,0.0836235806346,-1.0721552372,51.0143651962,,,,,5.64,12.19,-0.15,42.2463400364
0.0641869828105,0.075186394155,-1.07789516449,51.016764164,,,,,5.37,11.34,0.32,42.2467041016
0.0617410466075,0.0637028589845,-1.06501829624,51.019162178,,,,,-1.25,9.26,0.5,42.2470691204
0.048888489604,0.078256316483,-1.04648327827,51.0586471558,,,,,-4.29,8.93,0.34,42.2474350929
0.0398284271359,0.0959383770823,-1.03332138062,51.0610461235,,,,,-4.76,10.07,0.37,42.2841629982
0.036263845861,0.0986607298255,-1.04529416561,51.0634870529,,,,,-1.41,11.89,0.88,42.2845571041
0.0388875156641,0.0956364348531,-1.05329561234,51.0658841133,,,,,-0.43,12.37,0.0,42.284922123
0.0403407514095,0.0874790921807,-1.07600307465,51.1020011902,,,,,-0.57,12.14,-1.15,42.2852861881
0.0336410962045,0.0774189457297,-1.09579801559,51.1044402122,,,,,0.57,11.78,-3.65,42.285654068
0.0386644899845,0.0769767686725,-1.10051059723,51.1068401337,,,,,1.47,12.01,-4.43,42.2865650654
0.0464231260121,0.0810572877526,-1.09512066841,51.1092350483,,,,,0.23,14.8,-5.3,42.2869579792
0.0503903590143,0.0903291925788,-1.08506143093,51.1116352081,,,,,-0.09,15.44,-5.82,42.287322998
0.0534970611334,0.0880467966199,-1.04748654366,51.1499841213,,,,,3.25,14.64,-6.9,42.2876870632
0.052461899817,0.0764381513,-1.05798768997,51.1523661613,,,,,5.98,13.27,-6.8,42.2880520821
0.0518299862742,0.0730529949069,-1.07290410995,51.1547989845,,,,,6.62,11.06,-4.66,42.2889621258
0.0548286587,0.0834448412061,-1.07387506962,51.1571919918,,,,,-1.66,11.48,-2.15,42.2893540859
0.0434944853187,0.104168005288,-1.07319915295,51.1595871449,,,,,-6.23,12.59,-1.89,42.2897181511
0.0408540032804,0.105282373726,-1.06686222553,51.1994841099,,,,,-3.87,12.26,-2.32,42.2900819778
0.0350959375501,0.101649157703,-1.05719995499,51.201884985,,,,,4.19,10.35,-2.16,42.290446043
0.0272482745349,0.105907015502,-1.04359447956,51.2043280602,,,,,5.31,9.65,-1.3,42.2913551331
0.0485927611589,0.0884590223432,-1.05763375759,51.2067260742,,,,,-7.67,9.71,0.97,42.2917480469
0.0501328893006,0.0743164494634,-1.06856071949,51.2091231346,,,,,-10.56,9.71,0.71,42.2921130657
0.0337058156729,0.084420569241,-1.05707299709,51.2479941845,,,,,-6.09,8.9,-0.36,42.2924771309
0.0328755192459,0.0944792255759,-1.05689251423,51.2503900528,,,,,-1.48,8.73,-0.44,42.2928771973
0.029016084969,0.104135014117,-1.06016933918,51.2528171539,,,,,1.78,9.39,0.66,42.2937932014
0.0299658887088,0.118611447513,-1.03656744957,51.2552261353,,,,,-4.91,9.42,1.74,42.2941861153
0.0250986330211,0.11649466306,-1.03457307816,51.2919211388,,,,,-9.89,7.55,1.28,42.2945702076
0.0279585253447,0.103934176266,-1.04252886772,51.2943871021,,,,,-9.11,6.92,0.89,42.2949421406
0.0237417630851,0.106510199606,-1.03530097008,51.2967870235,,,,,-4.93,8.54,0.73,42.3288071156
0.0240290313959,0.101739443839,-1.03176915646,51.2991821766,,,,,-3.73,10.27,0.93,42.3297250271
0.0328472815454,0.0893072858453,-1.04909574986,51.3015801907,,,,,-5.15,11.01,0.57,42.330119133
0.0254566594958,0.0816735699773,-1.05617928505,51.3397841454,,,,,-5.84,9.49,-0.04,42.3304820061
0.0266051068902,0.0852579697967,-1.06564021111,51.3421862125,,,,,-7.01,8.35,-1.09,42.3308479786
0.0309255402535,0.101603351533,-1.0783239603,51.3446230888,,,,,-7.62,9.63,-1.32,42.3312141895
0.0351893976331,0.120678909123,-1.06895411015,51.3470201492,,,,,-7.17,13.23,-1.2,42.3321211338
0.0350769534707,0.127346381545,-1.04089653492,51.3494200706,,,,,-2.75,12.8,-1.2,42.3325161934
0.0256806537509,0.115555278957,-1.03848135471,51.3896892071,,,,,0.48,9.27,-1.29,42.332914114
0.021895416081,0.117216445506,-1.04847931862,51.3920860291,,,,,-0.77,8.55,-1.17,42.333283186
0.0252483785152,0.129488140345,-1.0324229002,51.3945200443,,,,,-3.73,8.99,-0.91,42.3336491585
0.0243292544037,0.11556801945,-1.02239859104,51.3969190121,,,,,-9.07,11.33,-0.16,42.3345601559
0.0249552428722,0.104321993887,-1.0227253437,51.3993179798,,,,,-2.11,10.21,0.41,42.3349530697
0.0293010454625,0.106691531837,-1.03501582146,51.437390089,,,,,0.7,9.31,0.61,42.3353190422
0.0323481783271,0.114926956594,-1.04386591911,51.4397881031,,,,,1.12,9.06,0.84,42.3356831074
0.0238986350596,0.12877677381,-1.02776956558,51.4421851635,,,,,-5.3,10.32,1.21,42.3360481262
0.0145369898528,0.145829319954,-1.01580584049,51.4446191788,,,,,-11.39,11.13,0.69,42.3369581699
0.0198365021497,0.136733800173,-0.996904373169,51.4809751511,,,,,-8.08,10.58,-0.33,42.3373501301
0.0257953386754,0.117722965777,-1.01186668873,51.4834082127,,,,,-2.05,11.48,-0.55,42.3377161026
0.0216583907604,0.133526295424,-1.00682723522,51.4858100414,,,,,-1.37,12.38,-0.25,42.3380801678
0.0137029588223,0.143598943949,-1.00954556465,51.4882102013,,,,,-2.98,12.99,0.1,42.3384451866
0.0115363001823,0.143834680319,-1.01929616928,51.4906070232,,,,,-9.77,12.0,0.24,42.3393530846
0.011863199994,0.152810573578,-1.02241110802,51.529818058,,,,,-13.48,10.92,-0.57,42.3397450447
0.0161843448877,0.179609909654,-0.995072841644,51.5322170258,,,,,-11.73,12.13,-0.54,42.3770570755
0.0260539855808,0.189846307039,-0.982331633568,51.5346581936,,,,,-9.28,13.49,-0.33,42.3774220943
0.0278435945511,0.187422841787,-0.980654001236,51.537058115,,,,,-6.37,13.71,-0.21,42.3777871132
0.0133525170386,0.198984578252,-0.972489178181,51.5394570827,,,,,-7.31,12.3,-0.68,42.3786931038
0.018291644752,0.22500218451,-0.967073857784,51.5792460442,,,,,-14.7,10.8,-3.32,42.3790860176
0.0293253883719,0.236360669136,-0.972181856632,51.5816481113,,,,,-14.74,12.53,-3.89,42.3794500828
0.0391570106149,0.251867860556,-0.9747133255,51.5840861797,,,,,-7.93,15.73,-4.19,42.3798141479
0.053065918386,0.256227850914,-0.976877689362,51.5864851475,,,,,-3.23,15.5,-4.24,42.3801791668
0.049612749368,0.231398627162,-1.01510226727,51.5888869762,,,,,0.22,12.17,-4.72,42.3810880184
0.0473718047142,0.20362855494,-1.02584886551,51.62789011,,,,,-9.48,11.95,-4.83,42.3814821243
0.0457895100117,0.189219683409,-1.02930915356,51.6302921772,,,,,-11.03,13.34,-4.23,42.3818471432
0.0268204454333,0.158490583301,-1.03179705143,51.6326911449,,,,,-10.12,14.15,-3.4,42.382212162
0.0124531071633,0.11730415374,-1.05457270145,51.635130167,,,,,-4.14,12.42,-1.8,42.3825759888
0.0239099152386,0.110678963363,-1.06692838669,51.6706020832,,,,,-2.82,9.31,-0.81,42.3835220337
0.014959467575,0.107246793807,-1.06417894363,51.6730420589,,,,,-7.87,8.94,-0.32,42.3839170933
-0.0031976737082,0.0981160923839,-1.08129489422,51.6754391193,,,,,-10.5,9.29,-0.07,42.3842802048
-0.00081642519217,0.101099975407,-1.07951319218,51.6778390408,,,,,-12.12,8.69,0.43,42.3846440315
-0.00104830961209,0.108850888908,-1.07920372486,51.6802361012,,,,,-11.12,7.77,0.67,42.3850090504
-0.0105342082679,0.101860575378,-1.09525132179,51.7198090553,,,,,-7.86,6.5,1.2,42.3859181404
-0.0115900449455,0.102116934955,-1.11874175072,51.7222061157,,,,,-4.92,6.43,1.91,42.3863101006
0.00411419197917,0.0965734794736,-1.09332370758,51.7246470451,,,,,-5.35,5.12,2.66,42.3866751194
0.0150479581207,0.0811299160123,-1.08587694168,51.7270450592,,,,,-7.19,3.98,2.8,42.3870401382
0.0115154590458,0.0758219286799,-1.09233081341,51.7294449806,,,,,-11.68,2.94,2.57,42.3874042034
0.0100205373019,0.0615535825491,-1.1136213541,51.7693040371,,,,,-12.02,3.41,2.36,42.426431179
0.0103069581091,0.0518601089716,-1.10878372192,51.7716991901,,,,,-3.34,3.72,2.57,42.426828146
0.0143755748868,0.0522530898452,-1.10691106319,51.7741351128,,,,,-1.18,2.29,2.68,42.4271922112
0.0210502818227,0.0315371826291,-1.0877341032,51.7765290737,,,,,-4.96,-0.22,2.28,42.4275569916
0.0264716073871,0.0183982197195,-1.06717896461,51.8134150505,,,,,-9.29,-0.14,1.74,42.4279220104
0.0032026655972,0.0292065571994,-1.08694159985,51.8158211708,,,,,-12.89,2.23,0.75,42.4288320541
-0.0104708876461,0.034652762115,-1.07235693932,51.8182160854,,,,,-4.91,2.71,0.86,42.4292252064
0.00910353660583,0.0348141342402,-1.04905903339,51.8206121922,,,,,2.31,-0.06,1.64,42.4295921326
0.0169465709478,0.0244436580688,-1.06412005424,51.8230512142,,,,,1.09,-1.14,1.87,42.4299571514
0.0180296581239,0.0422188416123,-1.07404386997,51.861148119,,,,,-7.52,-0.72,1.73,42.4303221703
0.00368945673108,0.057873941958,-1.0958712101,51.8635811806,,,,,-10.51,0.21,1.6,42.4312310219
0.0183715410531,0.0552476122975,-1.11391186714,51.8659801483,,,,,-4.02,0.24,2.06,42.4316241741
0.0365671515465,0.0811650231481,-1.12281405926,51.8683781624,,,,,-0.85,-0.43,2.27,42.4319880009
0.0343610048294,0.0937148407102,-1.10347187519,51.8707811832,,,,,-1.19,-0.83,2.14,42.432352066
0.0110711399466,0.0792480632663,-1.09652018547,51.9103209972,,,,,-3.77,-0.61,1.81,42.4327161312
-0.00330946221948,0.084021024406,-1.08427190781,51.912717104,,,,,-8.22,-0.66,1.17,42.4336640835
0.0200770366937,0.0911942049861,-1.0703189373,51.9151551723,,,,,-8.14,-1.11,1.0,42.4340560436
0.0340372174978,0.0921068713069,-1.0569896698,51.9175550938,,,,,-6.34,-0.02,1.15,42.4344210625
0.0207746587694,0.0651093795896,-1.07782459259,51.9199500084,,,,,-5.07,0.87,1.27,42.4347851276
0.0211471952498,0.0708070993423,-1.08186411858,51.9589681625,,,,,-3.58,1.35,1.42,42.4351501465
0.0237794015557,0.070210210979,-1.04303824902,51.9613640308,,,,,-1.35,0.17,1.77,42.4360601902
-0.0153474770486,0.0491935312748,-1.08026337624,51.9638140202,,,,,-6.27,-0.84,1.22,42.436453104
-0.0102179255337,0.0582272335887,-1.10739791393,51.9662110806,,,,,-8.35,0.35,0.63,42.4368171692
0.012091409415,0.0679293051362,-1.08824717999,52.0036990643,,,,,-6.17,2.56,-0.46,42.4371809959
-0.00936380960047,0.0708217099309,-1.07591366768,52.006098032,,,,,-2.01,2.46,-0.74,42.4375481606
-0.0137195065618,0.0746365711093,-1.08010208607,52.0084950924,,,,,4.45,0.58,-0.85,42.4739351273
-0.00435417890549,0.0723178014159,-1.11845290661,52.0108931065,,,,,-0.4,0.41,-1.17,42.4743289948
0.00364538282156,0.0639629811049,-1.13250565529,52.0133800507,,,,,-7.87,2.51,-1.85,42.4746940136
0.0187044050545,0.0859220996499,-1.14208292961,52.050027132,,,,,-7.73,3.26,-1.87,42.4750590324
0.0202670507133,0.104506470263,-1.1542211771,52.0524251461,,,,,-4.42,3.33,-1.47,42.4754221439
0.0122311767191,0.0919837132096,-1.12789285183,52.0548582077,,,,,3.85,2.2,0.46,42.4763321877
0.0135365948081,0.0698556080461,-1.14709448814,52.0572571754,,,,,-3.24,1.55,2.94,42.4767251015
0.0157143492252,0.0974147990346,-1.15766167641,52.0596551895,,,,,-7.8,1.23,3.12,42.4770891666
0.0221745632589,0.118193276227,-1.17359185219,52.0994780064,,,,,-10.18,0.61,3.17,42.4774551392
0.0196156073362,0.118145026267,-1.16181182861,52.1018760204,,,,,-7.06,-0.52,3.43,42.4778220654
0.0102876927704,0.113934822381,-1.13971507549,52.1043221951,,,,,-2.16,0.47,3.93,42.4787330627
-0.00839859992266,0.0833931788802,-1.14708471298,52.1067202091,,,,,-2.75,1.42,3.59,42.4791259766
-0.012241076678,0.0577353611588,-1.16204714775,52.1091179848,,,,,-4.19,0.64,3.11,42.4794900417
-0.0122055187821,0.0554007738829,-1.15965402126,52.148938179,,,,,-4.76,-2.32,2.02,42.4798550606
-0.0274713933468,0.0518953278661,-1.16858935356,52.1513361931,,,,,-3.81,-2.95,1.65,42.4802191257
-0.0338186845183,0.0616354197264,-1.18606984615,52.153771162,,,,,-1.42,-0.63,1.12,42.4811301231
-0.0290497429669,0.0716860815883,-1.16779077053,52.156167984,,,,,4.45,1.54,0.21,42.4815251827
-0.0231566056609,0.0613207891583,-1.14987421036,52.1921701431,,,,,6.97,-0.26,0.16,42.4818890095
-0.00463253073394,0.0507332086563,-1.14500153065,52.1946210861,,,,,8.67,-2.34,0.31,42.482252121
0.0191141664982,0.0644984096289,-1.13307821751,52.1970191002,,,,,6.78,-3.47,0.61,42.4826161861
0.0254890806973,0.0772278979421,-1.12784254551,52.1994180679,,,,,4.17,-2.11,0.29,42.4835681915
0.00486914813519,0.0616735741496,-1.13209402561,52.2018141747,,,,,5.22,0.36,-1.86,42.4839642048
-0.0209762975574,0.0463987439871,-1.13544952869,52.2396609783,,,,,9.28,-0.99,-2.01,42.4843280315
-0.0241991356015,0.048913538456,-1.15448153019,52.2420601845,,,,,12.95,-3.48,-0.54,42.4846920967
-0.0287821814418,0.0532293245196,-1.15971314907,52.2445011139,,,,,9.97,-3.18,0.44,42.5188150406
-0.0448169261217,0.0436813682318,-1.17819833755,52.2469081879,,,,,-1.09,-0.91,1.2,42.5197291374
-0.0383284091949,0.0410969927907,-1.1970705986,52.2493031025,,,,,-4.44,-1.0,0.59,42.5201220512
-0.0289678387344,0.0404221639037,-1.19246351719,52.2897951603,,,,,2.19,-3.05,1.35,42.5204861164
-0.0230354890227,0.0433883070946,-1.16306054592,52.2921850681,,,,,4.36,-3.11,2.61,42.5208501816
-0.0180131345987,0.0346762165427,-1.15789532661,52.2946341038,,,,,-0.67,-1.14,5.2,42.5212152004
-0.0184279829264,0.0223759505898,-1.16110110283,52.2970330715,,,,,-6.4,-0.46,5.8,42.5221250057
-0.0105095915496,0.0312078054994,-1.14088976383,52.2994279861,,,,,-12.62,-2.7,4.78,42.522518158
-0.00960549712181,0.0409045219421,-1.12590789795,52.3387820721,,,,,-9.52,-2.99,4.52,42.5229160786
-0.0169704072177,0.0467438697815,-1.13063037395,52.3411769867,,,,,-3.48,-0.61,4.74,42.5232810974
-0.0022784974426,0.0414206981659,-1.14100134373,52.3436250687,,,,,-3.22,0.79,4.86,42.5236470699
0.0096939643845,0.0320694372058,-1.14959442616,52.3460221291,,,,,-7.58,0.45,4.21,42.5245580673
0.0027156509459,0.0469344630837,-1.13320243359,52.3819601536,,,,,-10.52,-2.56,2.92,42.5249509811
-0.000614734250121,0.0504442751408,-1.13975095749,52.3844051361,,,,,-7.9,-1.87,2.12,42.525316
-0.00611882470548,0.0376143157482,-1.14329278469,52.3868000507,,,,,-5.43,-0.09,1.99,42.5256810188
-0.0185281708837,0.028717873618,-1.13734066486,52.3891990185,,,,,-1.51,1.98,1.72,42.5260460377
-0.0230361372232,0.0303026717156,-1.13167762756,52.3915991783,,,,,-0.73,1.21,1.5,42.5269560814
-0.0222604423761,0.0394905135036,-1.14159786701,52.4300022125,,,,,-3.46,-1.91,1.2,42.5273470879
-0.00845537334681,0.0431722849607,-1.13352608681,52.4324030876,,,,,-4.7,-1.04,1.2,42.5277121067
-0.00903793051839,0.0359444841743,-1.14076673985,52.4348402023,,,,,-5.09,1.62,1.04,42.5280749798
-0.0249739177525,0.0315836146474,-1.14049482346,52.437237978,,,,,-3.72,1.88,0.87,42.5284399986
-0.0265989229083,0.038841240108,-1.14455974102,52.4396400452,,,,,0.21,0.0,0.66,42.529348135
-0.0167188830674,0.0312124397606,-1.14069283009,52.4794080257,,,,,0.79,-0.95,0.71,42.5673131943
-0.015156917274,0.00721190311015,-1.14251577854,52.4818041325,,,,,-3.34,0.54,0.41,42.5676801205
-0.0154754817486,0.00860354118049,-1.11528074741,52.4842801094,,,,,-5.68,0.99,0.09,42.5680441856
-0.013684310019,0.0380136147141,-1.08964693546,52.4866759777,,,,,-6.87,0.75,-0.21,42.5684080124
-0.0169589444995,0.051822155714,-1.09405767918,52.4890761375,,,,,-4.76,-0.74,-0.31,42.5693211555
-0.0162897333503,0.0347867533565,-1.11353051662,52.5278930664,,,,,0.6,0.16,0.32,42.5697131157
-0.0101928375661,0.00794264487922,-1.12419688702,52.5302929878,,,,,-0.56,0.49,0.27,42.5700771809
