acc x,acc y,acc z,accTime,com x,com y,com z,comTime,gyro x,gyro y,gyro z,gyroTime
0.0316133834422,-0.0210861731321,-1.03574705124,80.8564050198,,,,,-46.53,-7.71,-176.45,80.8569521904
0.0320130176842,-0.00585041753948,-1.03868770599,80.8588311672,,,,,-37.32,-6.53,-175.42,80.8573470116
0.0278088692576,3.76496464014e-05,-1.04114055634,80.861232996,,,,,-38.36,-7.41,-175.26,80.8577079773
0.0143631733954,-0.00277765095234,-1.03626525402,80.8637781143,,,,,-41.93,-8.76,-175.52,80.8580691814
0.0162172894925,-0.0097603816539,-1.05834615231,80.8661701679,,,,,-49.98,-9.92,-176.94,80.858438015
0.0217136107385,-0.033618979156,-1.08062911034,80.8686420918,,,,,-50.36,-9.01,-177.56,80.8593430519
0.0217533521354,-0.0306219290942,-1.08030331135,80.8710579872,,,,,-37.62,-5.07,-176.44,80.8597331047
0.0253086648881,-0.0137297585607,-1.07046663761,80.8734560013,,,,,-35.28,-5.55,-175.68,80.8600940704
0.0227215513587,-0.00630185659975,-1.03707182407,80.8758480549,,,,,-40.62,-8.27,-175.34,80.860476017
0.0184309389442,0.0115517582744,-1.03022444248,80.8782491684,,,,,-45.44,-8.94,-175.86,80.8608431816
0.0178920496255,0.0134843792766,-1.04046666622,80.8806672096,,,,,-49.1,-7.07,-176.82,80.8618130684
0.0198025628924,-0.0096185579896,-1.05808508396,80.8830630779,,,,,-42.04,-3.96,-175.66,80.8622050285
0.015780556947,-0.0101003721356,-1.06584489346,80.8854980469,,,,,-36.12,-5.08,-173.28,80.86256814
0.00446894578636,-0.0102713722736,-1.06212306023,80.8878819942,,,,,-37.69,-6.93,-172.51,80.8630311489
0.017337333411,-0.020295901224,-1.06218147278,80.8902590275,,,,,-47.66,-9.56,-172.5,80.8633999825
0.0113174151629,-0.00526690203696,-1.02674686909,80.8926670551,,,,,-52.48,-9.23,-172.91,80.8642911911
-0.000537453102879,0.0103273242712,-1.02312135696,80.8951561451,,,,,-51.5,-5.61,-172.25,80.8646891117
0.0115922428668,-0.00174625217915,-1.0390805006,80.8975222111,,,,,-47.49,-5.48,-171.45,80.8650541306
0.0160717517138,-0.0149398166686,-1.0444278717,80.8999180794,,,,,-44.28,-7.26,-170.79,80.86541605
0.00837535876781,-0.00873300619423,-1.049664855,80.9023411274,,,,,-46.79,-8.1,-171.21,80.8657770157
0.00174555380363,-0.0098878107965,-1.04785633087,80.9048550129,,,,,-54.69,-7.63,-173.1,80.8666820526
0.000448592123576,-0.0167587194592,-1.03206896782,80.9072260857,,,,,-55.48,-5.32,-174.06,80.8670721054
-0.00349151156843,-0.00733832456172,-1.02506649494,80.9096591473,,,,,-47.02,-3.98,-173.56,80.8674941063
0.00562950968742,0.00841236300766,-1.03292858601,80.912042141,,,,,-43.41,-4.16,-173.36,80.8678591251
0.0138791520149,0.011737620458,-1.04097545147,80.9144849777,,,,,-43.86,-5.47,-174.02,80.8682200909
0.0140333138406,-0.00318415462971,-1.03447794914,80.9168720245,,,,,-47.01,-5.98,-174.82,80.8691589832
-0.0056365057826,-0.0163142029196,-1.01926028728,80.9192922115,,,,,-52.51,-4.23,-175.81,80.8695821762
-0.00418012775481,-0.00987221486866,-1.02907335758,80.9216701984,,,,,-51.34,-3.22,-175.29,80.8699450493
0.0173326004297,-0.00950057245791,-1.04011213779,80.9240860939,,,,,-48.72,-2.86,-174.18,80.8703072071
0.00320504978299,-0.024158494547,-1.03812682629,80.9265182018,,,,,-48.35,-4.03,-174.07,80.8706691265
-0.0119939409196,-0.0153901614249,-1.01965868473,80.9288990498,,,,,-48.52,-6.7,-174.79,80.8715701103
-1.72707064975e-38,-2.01290579968e+11,5.70736983718e-06,80.9312591553,,,,,-48.5,-6.26,-175.41,80.8719601631
-0.00130816537421,0.00332124717534,-1.03468096256,80.9340012074,,,,,-49.8,-3.31,-174.99,80.8723220825
0.00451357848942,-0.00658230204135,-1.05025494099,80.9363760948,,,,,-50.83,-2.61,-174.9,80.8726830482
-0.000408558058552,-0.018213653937,-1.04830241203,80.938778162,,,,,-49.69,-4.58,-14372176.9,80.8730931282
-0.00193908053916,-0.0162055883557,-1.04274225235,80.9411690235,,,,,-46.54,-6.25,-175.77,80.8739731312
-0.00997839123011,0.00471903942525,-1.01900172234,80.943614006,,,,,-38.63,-6.74,-174.68,80.8743669987
-0.0103258304298,0.0136979836971,-1.00559091568,80.9459881783,,,,,-40.65,-5.44,-173.68,80.8747291565
0.00733530241996,0.00460103340447,-1.02951824665,80.9483890533,,,,,-49.02,-4.17,-172.83,80.8750910759
0.0106761483476,-0.00979593768716,-1.04352748394,80.9507820606,,,,,-51.28,-4.75,-173.17,80.8754529953
0.000182563555427,-0.0124088153243,-1.05289232731,80.9531910419,,,,,-46.3,-6.75,-173.95,80.8763639927
-0.0117518529296,0.00674613006413,-1.04563188553,80.9555699825,,,,,-38.16,-6.82,-172.67,80.8767549992
-0.0158541463315,0.00898208655417,-1.04016804695,80.9579770565,,,,,-42.08,-5.47,-170.86,80.877117157
-0.0086433365941,-0.0206169206649,-1.03527498245,80.9603760242,,,,,-48.5,-5.15,-170.98,80.8774960041
-0.00367319211364,-0.0151273161173,-1.00902152061,80.9627521038,,,,,-54.91,-5.37,-171.93,80.877874136
0.00807603169233,0.00247851572931,-1.00184738636,80.9651591778,,,,,-58.61,-6.65,-174.51,80.878786087
0.00354811362922,-0.00430703628808,-1.01959204674,80.9675769806,,,,,-44.61,-6.16,-174.04,80.8791861534
-0.0050584282726,-0.00187311880291,-1.02376973629,80.9699721336,,,,,-42.76,-5.55,-173.19,80.8795521259
-0.00802959688008,-0.00398115813732,-1.01783633232,80.9723761082,,,,,-49.38,-5.71,-173.18,80.879914999
-0.0134020261467,-0.0311159025878,-1.02002978325,80.9748220444,,,,,-55.0,-6.7,-174.04,80.8802762032
-0.00788492895663,-0.0206067729741,-1.02016949654,80.9771959782,,,,,-59.0,-7.78,-175.02,80.8811781406
-0.00900969654322,-0.00366311985999,-1.0230717659,80.9795720577,,,,,-51.34,-7.38,-174.94,80.8815681934
-0.0109623894095,-0.0102151539177,-1.04106497765,80.9819750786,,,,,-42.03,-4.63,-173.42,80.8819301128
-0.00580033659935,-0.00956684909761,-1.0344183445,80.9844110012,,,,,-41.47,-4.29,-173.35,80.8822901249
-0.0139932446182,0.00936413370073,-1.02451562881,80.9868061543,,,,,-44.16,-5.02,-173.9,80.8826520443
-0.020376432687,-0.00230662617832,-1.01407885551,80.9891810417,,,,,-52.4,-7.89,-176.0,80.8835840225
-0.0104481391609,-0.0197947900742,-1.02535963058,80.9915909767,,,,,-49.91,-5.84,-175.83,80.883975029
-0.0231975577772,-0.0222606789321,-1.0312525034,80.9940271378,,,,,-45.65,-3.82,-174.86,80.8843371868
-0.029166828841,-0.0190755780786,-1.0296869278,80.9964079857,,,,,-42.22,-2.55,-174.16,80.8847081661
-0.0140427537262,-0.0163480620831,-1.04526817799,80.9988241196,,,,,-42.44,-3.97,-174.97,80.8850750923
-0.0117613114417,-0.0251143518835,-1.04771697521,81.0012030602,,,,,-45.73,-5.81,-176.34,80.8860301971
-0.00272536277771,-0.013611542061,-1.03809940815,81.003672123,,,,,-53.13,-6.33,-177.46,80.8864200115
-0.000415637972765,-0.000982331112027,-1.02168500423,81.0062251091,,,,,-52.08,-4.62,-175.74,80.8867821693
-0.0100897923112,-0.0189716741443,-1.01473605633,81.0087091923,,,,,-45.97,-2.58,-172.05,80.8871450424
-0.0218880772591,-0.039613135159,-1.01445841789,81.0111801624,,,,,-43.1,-3.41,-171.38,80.8875072002
-0.0207210406661,-0.0361786037683,-1.01921439171,81.0137951374,,,,,-41.19,-6.8,-172.71,80.8883931637
-0.0242129638791,-0.0283521618694,-1.02406954765,81.0162520409,,,,,-43.73,-6.1,-172.92,80.8887829781
-0.025615606457,-0.0260316897184,-1.03351342678,81.0186750889,,,,,-43.49,-4.32,-171.86,80.8891429901
-0.0216440744698,-0.00721819885075,-1.02993130684,81.0210499763,,,,,-41.86,-2.93,-171.21,80.8895051479
-0.0222485102713,-0.00356979947537,-1.02218866348,81.0235090256,,,,,-35.67,-2.98,-172.55,80.8898670673
-0.0205986052752,-0.021634535864,-1.01640617847,81.0258841515,,,,,-30.44,-4.84,-175.6,80.8908011913
-0.031209224835,-0.0315375328064,-1.00144660473,81.0282812119,,,,,-33.21,-4.41,-175.93,80.8911910057
-0.0302585531026,-0.0224743988365,-1.00678861141,81.0307371616,,,,,-37.59,-3.4,-175.08,80.891561985
-0.0127852968872,-0.0282523278147,-1.02136516571,81.0331540108,,,,,-46.43,-2.1,-174.12,80.8919291496
-0.014611326158,-0.0523274689913,-1.04050350189,81.035531044,,,,,-48.01,-2.64,-174.49,80.8922920227
-0.0228803195059,-0.0316224396229,-1.04068672657,81.0379710197,,,,,-44.27,-5.03,-175.22,80.8932471275
-0.0178807862103,0.0142723340541,-1.04901468754,81.0404250622,,,,,-39.55,-5.58,-173.43,80.8936719894
-0.0158476531506,0.00855123437941,-1.03575539589,81.0428221226,,,,,-43.8,-4.43,-170.35,80.8940341473
-0.0211491547525,-0.00400570873171,-1.0236055851,81.0452079773,,,,,-48.13,-4.3,-169.74,80.8943970203
-0.0163887478411,-0.00104991160333,-1.00334620476,81.0476231575,,,,,-53.85,-6.21,-170.89,80.8947570324
-0.0130588673055,-0.00899889878929,-0.996684193611,81.0499989986,,,,,-53.15,-7.15,-171.87,80.8956730366
-0.0140521004796,-0.0356760323048,-1.00445318222,81.05240798,,,,,-42.98,-4.82,-171.94,80.896064043
-0.0122716315091,-0.0419656932354,-1.01608169079,81.0548520088,,,,,-41.2,-3.59,-170.94,80.8964250088
-0.0175241567194,-0.016189834103,-1.01311814785,81.0572152138,,,,,-43.67,-4.62,-169.78,80.8967871666
-0.0223197415471,-0.0228782128543,-1.03727984428,81.0595910549,,,,,-47.14,-6.69,-170.16,80.8971471786
-0.0185692161322,-0.014219911769,-1.0392062664,81.0620241165,,,,,-53.03,-9.25,-172.43,80.8980350494
-0.00846803933382,-0.00799065455794,-1.01714932919,81.0641360283,,,,,-52.21,-6.35,-174.17,80.8984241486
-0.00724944658577,-0.0186143890023,-1.02944397926,81.0665111542,,,,,-46.0,-3.18,-173.72,80.898786068
-0.0107157491148,-0.0379038900137,-1.04221594334,81.0688960552,,,,,-43.63,-3.88,-173.37,80.8991570473
-0.0128360204399,-0.0233323927969,-1.04608333111,81.0713260174,,,,,-45.68,-8.71,-174.21,80.8995289803
-0.0153356976807,-0.0108310263604,-1.02878129482,81.0737371445,,,,,-49.39,-10.58,-175.44,80.9004321098
-0.0163348652422,-0.0435471907258,-1.02818334103,81.0761451721,,,,,-53.6,-6.72,-177.31,80.900821209
-0.0156380496919,-0.0555003806949,-1.03787100315,81.0785582066,,,,,-50.13,-4.61,-176.33,80.901184082
-0.0102137885988,-0.0298317056149,-1.02850461006,81.0809481144,,,,,-42.26,-4.41,-173.76,80.9015750885
-0.00298702344298,-0.0267214532942,-1.02000820637,81.0833580494,,,,,-41.69,-6.13,-173.17,80.9019391537
-0.00832653418183,-0.0222167242318,-1.02962136269,81.0857880116,,,,,-48.82,-8.73,-173.73,80.9029831886
-0.00611327216029,-0.0127169694752,-1.0274105072,81.0881621838,,,,,-55.66,-6.22,-174.3,80.9033811092
-0.00498027354479,-0.0171353202313,-1.04011547565,81.0905361176,,,,,-52.65,-2.02,-172.68,80.9037430286
-0.0167189389467,-0.0272990707308,-1.03162813187,81.0929419994,,,,,-48.66,-1.08,-171.79,80.9041051865
-0.0240454077721,-0.0240922849625,-1.03457713127,81.0953531265,,,,,-45.32,-1.35,-171.4,80.9044651985
-0.0210707224905,-0.0202849525958,-1.03647816181,81.0977489948,,,,,-45.37,-3.62,-172.17,80.9053611755
-0.00499229319394,-0.0405584201217,-1.036688447,81.1001241207,,,,,-52.56,-3.21,-173.64,80.9057509899
-0.00672693550587,-0.0364792495966,-1.04311585426,81.1025321484,,,,,-52.67,-1.98,-173.15,80.9061121941
-0.013938318938,-0.0119207222015,-1.04177320004,81.104940176,,,,,-47.72,-0.84,-171.79,80.9064750671
-0.00259301625192,-0.022283917293,-1.04735815525,81.1073191166,,,,,-44.77,-1.42,-171.42,80.9068360329
-0.0049002841115,-0.0520754680037,-1.05093967915,81.1097240448,,,,,-42.0,-3.8,-171.93,80.9077320099
-0.0134536810219,-0.0400256514549,-1.04287099838,81.1121292114,,,,,-44.87,-4.31,-172.72,80.9081389904
-0.0119165852666,-0.0371533483267,-1.02639877796,81.1146371365,,,,,-48.62,-2.83,-172.32,80.9085052013
-0.0204478949308,-0.0361811593175,-1.01980400085,81.1170141697,,,,,-48.99,-2.29,-171.72,80.9088661671
-0.0250655114651,-0.041941255331,-1.01447701454,81.1194250584,,,,,-47.96,-2.26,-171.21,80.9092280865
-0.0238514170051,-0.0619745776057,-1.01755332947,81.1564500332,,,,,-43.23,-3.73,-170.92,80.9101760387
-0.0189303644001,-0.0643417835236,-1.01965880394,81.158862114,,,,,-39.27,-4.3,-171.11,80.9105660915
-0.00885779410601,-0.0619904473424,-1.03174567223,81.1612360477,,,,,-40.09,-3.78,-170.84,80.9109280109
-0.00841951929033,-0.0674975737929,-1.04239296913,81.1636600494,,,,,-41.53,-3.29,-170.47,80.9112889767
-0.011584751308,-0.0486590713263,-1.0342066288,81.199887991,,,,,-43.57,-3.25,-170.31,80.9116511345
-0.0121170207858,-0.0387327894568,-1.01340317726,81.2022709846,,,,,-42.77,-4.13,-170.85,80.9125549793
-0.0201076641679,-0.0372679233551,-1.02685046196,81.2046802044,,,,,-38.76,-4.44,-171.12,80.9129750729
-0.015299808234,-0.0363532975316,-1.03040766716,81.2070860863,,,,,-37.9,-4.24,-170.1,80.913367033
-0.004643086344,-0.0467811822891,-1.02887499332,81.2094590664,,,,,-40.03,-4.27,-169.57,80.9137310982
-0.00709146633744,-0.0522636920214,-1.01377010345,81.2481791973,,,,,-43.78,-4.37,-169.37,80.9140942097
-0.00715718045831,-0.065332621336,-1.01589083672,81.2508730888,,,,,-50.93,-4.57,-170.32,80.9149980545
-0.0103874281049,-0.0721582695842,-1.02923703194,81.2532801628,,,,,-44.36,-4.48,-171.87,80.9153900146
-0.0129477456212,-0.0631775483489,-1.03198671341,81.2556920052,,,,,-40.03,-4.29,-171.64,80.9157521725
-0.00214252993464,-0.0694512724876,-1.04330670834,81.2580640316,,,,,-37.95,-4.11,-171.19,80.9161131382
0.00651234947145,-0.0833296626806,-1.03966975212,81.29717803,,,,,-43.46,-3.8,-170.96,80.9164741039
0.00652095396072,-0.0539235770702,-1.0104984045,81.2995531559,,,,,-48.72,-3.85,-171.67,80.9174029827
0.00719933025539,-0.0588509216905,-1.032761693,81.3019599915,,,,,-49.68,-4.13,-174.32,80.9178152084
0.00426388718188,-0.0628439337015,-1.05978345871,81.3043720722,,,,,-44.17,-4.01,-173.97,80.9181790352
0.00426860526204,-0.0432718917727,-1.0484828949,81.3067481518,,,,,-36.67,-3.92,-171.0,80.918541193
0.00710703246295,-0.0564476624131,-1.04290544987,81.3464140892,,,,,-38.16,-4.5,-169.38,80.9189021587
-0.0075284037739,-0.0577103570104,-1.04027354717,81.3487889767,,,,,-49.68,-7.47,-168.37,80.9198050499
-0.0198123492301,-0.0631921216846,-1.04163312912,81.3511841297,,,,,-57.31,-10.17,-169.76,80.9201951027
-0.0156524293125,-0.0773172453046,-1.06696557999,81.3535900116,,,,,-52.8,-9.32,-169.44,80.9205570221
-0.0217687003314,-0.0737784132361,-1.08750939369,81.3896551132,,,,,-48.71,-7.97,-168.2,80.9209191799
-0.021402399987,-0.0686342269182,-1.0693898201,81.3920321465,,,,,-45.38,-7.05,-166.11,80.9212801456
-0.0121522247791,-0.0814602151513,-1.08617198467,81.3944451809,,,,,-47.93,-8.21,-166.4,80.9221820831
-0.00685551576316,-0.0702864304185,-1.08630478382,81.3968269825,,,,,-60.04,-11.56,-171.41,80.9225721359
-0.0106652900577,-0.0553390458226,-1.05601561069,81.3992340565,,,,,-60.73,-10.33,-172.22,80.9229691029
-0.00645698793232,-0.0588936135173,-1.0390791893,81.4374701977,,,,,-54.54,-5.75,-170.98,80.923333168
-0.00485575385392,-0.0442543625832,-1.03838717937,81.4398601055,,,,,-49.53,-4.42,-169.97,80.9236950874
-0.00746415928006,-0.0589231103659,-1.07107484341,81.442234993,,,,,-44.49,-6.29,-170.16,80.9246160984
0.0011302010389,-0.0761074051261,-1.09406840801,81.4446430206,,,,,-49.48,-10.0,-172.91,80.9250080585
0.00179076951463,-0.0568952783942,-1.09652757645,81.4470460415,,,,,-55.35,-9.14,-174.14,80.925369978
0.00474099814892,-0.0564500764012,-1.07932543755,81.487375021,,,,,-54.74,-7.26,-173.5,80.9257640839
8.96790297702e-05,-0.0762096270919,-1.06438970566,81.4897470474,,,,,-45.51,-4.99,-171.56,80.926128149
-0.00195365212858,-0.069814004004,-1.06947016716,81.4921150208,,,,,-40.28,-5.81,-171.2,80.9270300865
-0.014053080231,-0.0535364225507,-1.08076870441,81.4946260452,,,,,-41.56,-10.23,-172.94,80.9274201393
-0.0128757469356,-0.0492102131248,-1.09530711174,81.4969952106,,,,,-46.51,-9.87,-173.51,80.9277820587
0.00721309706569,-0.0356426239014,-1.0847568512,81.5352370739,,,,,-53.17,-6.46,-173.2,80.9281461239
0.00296033918858,-0.041419506073,-1.07589864731,81.5376081467,,,,,-52.29,-5.03,-172.57,80.928508997
0.000113565591164,-0.0609144642949,-1.06298756599,81.5399830341,,,,,-45.4,-5.46,-171.57,80.9294121265
-0.00201737880707,-0.0731918588281,-1.06482648849,81.5423932076,,,,,-42.61,-7.81,-171.94,80.9298000336
-0.00637079589069,-0.0556441470981,-1.09093928337,81.5783121586,,,,,-48.18,-6.64,-172.99,80.9301631451
-0.00387489423156,-0.0593483820558,-1.11000907421,81.5806910992,,,,,-51.76,-4.73,-173.24,80.9305231571
0.00554540194571,-0.0623703226447,-1.10668849945,81.5831410885,,,,,-53.9,-1.92,-172.85,80.9308850765
0.0112727982923,-0.0443877354264,-1.08481490612,81.5855391026,,,,,-52.14,-2.18,-172.51,80.9317641258
0.0131259374321,-0.0453918427229,-1.06701791286,81.5879151821,,,,,-49.35,-3.43,-172.28,80.9321141243
0.0137400627136,-0.0455454811454,-1.05817270279,81.6281239986,,,,,-44.1,-5.52,-172.34,80.9324600697
0.0106478938833,-0.0365334451199,-1.05872833729,81.6305301189,,,,,-43.18,-5.06,-172.48,80.9328510761
0.00344289653003,-0.0618379488587,-1.09198212624,81.6329391003,,,,,-45.51,-2.31,-171.97,80.933216095
-0.00228601321578,-0.0709008648992,-1.09263682365,81.6353111267,,,,,-47.88,-1.59,-171.4,80.9336090088
0.00166681606788,-0.0452302992344,-1.08014297485,81.6377511024,,,,,-52.08,-3.5,-170.68,80.9345121384
0.0101936822757,-0.0424528196454,-1.06257796288,81.6773431301,,,,,-51.87,-5.98,-170.92,80.9349021912
0.018791725859,-0.0400932356715,-1.06146943569,81.6797511578,,,,,-46.8,-4.22,-171.21,80.9352631569
0.0248240809888,-0.042098172009,-1.07490575314,81.6821260452,,,,,-44.82,-2.55,-171.07,80.9356231689
0.0233381204307,-0.0675221309066,-1.08090078831,81.6845371723,,,,,-44.54,-1.61,-170.92,80.935986042
0.0200242139399,-0.0745851919055,-1.07305037975,81.6869452,,,,,-49.88,-3.22,-171.49,80.9369101524
0.0143871307373,-0.04259403795,-1.05773115158,81.7250671387,,,,,-56.25,-5.68,-173.62,80.9373011589
0.00454892590642,-0.0257933866233,-1.05831599236,81.7274742126,,,,,-53.11,-4.51,-173.64,80.937664032
0.00814635213464,-0.0465494543314,-1.0665615797,81.7298471928,,,,,-48.04,-2.99,-173.21,80.9380261898
0.00640288274735,-0.064328186214,-1.09472084045,81.7322211266,,,,,-40.24,-2.39,-171.89,80.9383881092
0.00648758932948,-0.0514694601297,-1.09337770939,81.7685852051,,,,,-40.77,-3.63,-171.6,80.939289093
0.0191047955304,-0.0417265668511,-1.07409203053,81.7709610462,,,,,-52.8,-6.29,-172.27,80.9396791458
0.0170387253165,-0.056392274797,-1.06450378895,81.7733809948,,,,,-50.3,-3.45,-172.17,80.9400491714
0.0151374712586,-0.0473289936781,-1.05953729153,81.7757930756,,,,,-44.58,-1.95,-171.77,80.9404129982
0.0131544228643,-0.0375898331404,-1.07058727741,81.7781970501,,,,,-38.67,-1.14,-171.28,80.940775156
0.0183882992715,-0.0434083119035,-1.07810044289,81.8175780773,,,,,-34.93,-1.93,-170.84,80.9417140484
0.0351238325238,-0.0528844743967,-1.07636654377,81.8199520111,,,,,-49.77,-2.64,-172.34,80.9421072006
0.0311935227364,-0.0564808994532,-1.08194792271,81.8223590851,,,,,-52.32,-2.04,-173.12,80.94246912
0.0252898186445,-0.0755340531468,-1.08456861973,81.8247740269,,,,,-51.25,-1.26,-173.64,80.9428579807
0.026122957468,-0.072461374104,-1.07362937927,81.8271491528,,,,,-42.21,-0.4,-172.95,80.9432241917
0.0222872532904,-0.0254375357181,-1.052287817,81.8673930168,,,,,-38.63,-0.74,-171.86,80.9441251755
0.0334715470672,-0.00249769538641,-1.04695904255,81.8697931767,,,,,-46.81,-3.94,-169.96,80.9445149899
0.0375133082271,-0.0282211508602,-1.06337547302,81.8721539974,,,,,-52.86,-5.13,-170.57,80.944876194
0.0184730235487,-0.05168094486,-1.0821467638,81.8745691776,,,,,-58.53,-5.96,-171.8,80.9452371597
-5.69231519418e+25,-7.83157440876e-23,-2.12664460423e-14,81.876928091,,,,,-56.93,-5.61,-171.31,80.9455981255
0.0224175993353,-0.0387303009629,-1.08750391006,81.9152600765,,,,,-49.13,-4.48,-168.43,80.9464991093
0.0329053588212,-0.0085640270263,-1.0833312273,81.9176671505,,,,,-47.54,-7.19,-168.21,80.9468882084
0.0345484763384,-0.019697194919,-1.08164465427,81.9200470448,,,,,-51.21,-8.6,-169.78,80.9472501278
0.0208340156823,-0.0451923385262,-1.08279335499,81.9224250317,,,,,-55.0,-9.38,-171.17,80.9476120472
0.0144616160542,-0.0544070228934,-1.09811401367,81.9583420753,,,,,-57.59,-8.07,-171.02,80.9479730129
0.0214164797217,-0.0493898764253,-1.10838389397,81.9607200623,,,,,-49.56,-5.99,-168.55,80.9489030838
0.0329294092953,-0.0232600513846,-1.0923974514,81.9631290436,,,,,-40.07,-7.5,-168.91,80.9492931366
0.0259459428489,-0.0256150048226,-1.08898937702,81.9655401707,,,,,-38.88,-9.17,-170.48,80.9496850967
0.0111086126417,-0.0558880493045,-1.09594941139,81.9679191113,,,,,-44.45,-10.59,-173.62,80.9500482082
0.0169213600457,-0.0567244440317,-1.09241747856,82.008174181,,,,,-48.37,-9.69,-174.06,80.9504079819
0.0207695960999,-0.0501811876893,-1.09681236744,82.0105531216,,,,,-49.48,-7.09,-173.1,80.9512951374
0.0223446842283,-0.0489406138659,-1.08562123775,82.0129570961,,,,,-39.74,-6.98,-172.94,80.9516839981
0.0171468146145,-0.030880657956,-1.08501386642,82.0154161453,,,,,-32.46,-8.83,-174.61,80.9520461559
0.00754922628403,-0.0345972627401,-1.0883705616,82.0177881718,,,,,-33.41,-8.92,-175.41,80.952406168
0.0146644730121,-0.0524883195758,-1.0895793438,82.0568339825,,,,,-41.89,-7.05,-175.58,80.9527680874
0.0325587280095,-0.0509867221117,-1.08301889896,82.0592010021,,,,,-46.02,-5.86,-175.02,80.9537060261
0.0316794663668,-0.0405504032969,-1.06556761265,82.0616140366,,,,,-44.48,-5.52,-173.82,80.9540970325
0.0265566837043,-0.0347636416554,-1.05743181705,82.0640180111,,,,,-41.81,-6.02,-173.7,80.9544591904
0.013033753261,-0.0346883758903,-1.0672274828,82.1012711525,,,,,-39.71,-5.98,-173.45,80.9548201561
0.0157862696797,-0.0413947999477,-1.09945833683,82.103718996,,,,,-41.27,-5.37,-173.03,80.9551811218
0.0315672233701,-0.0405272319913,-1.1014097929,82.106096983,,,,,-47.28,-4.5,-171.82,80.9560821056
0.0247656553984,-0.037176117301,-1.08795940876,82.1084721088,,,,,-51.64,-5.02,-171.28,80.9564721584
0.0222546570003,-0.0370919257402,-1.08624625206,82.1108841896,,,,,-50.1,-5.31,-171.82,80.9568331242
0.0234564486891,-0.0319177359343,-1.08953344822,82.1483302116,,,,,-46.99,-4.95,-172.12,80.9571940899
0.0244713295251,-0.0343258455396,-1.08807516098,82.1507711411,,,,,-40.05,-3.63,-171.79,80.95758605
0.0295137278736,-0.0371281132102,-1.09188139439,82.153181076,,,,,-38.4,-3.47,-171.17,80.9584891796
0.0237133856863,-0.0296047683805,-1.0854228735,82.1558740139,,,,,-45.88,-4.76,-170.41,80.9588780403
0.0149838831276,-0.0265543293208,-1.09141790867,82.1582620144,,,,,-48.97,-4.94,-171.02,80.9592630863
0.0214105248451,-0.0184745099396,-1.10391616821,82.1974442005,,,,,-47.68,-3.71,-172.05,80.959624052
0.0273042991757,-0.0328982770443,-1.09809112549,82.1998381615,,,,,-43.3,-2.82,-171.88,80.9599871635
0.0316359065473,-0.0491551756859,-1.10393261909,82.2022030354,,,,,-35.49,-2.43,-170.16,80.9608871937
0.0170219726861,-0.0517203658819,-1.1084779501,82.2048389912,,,,,-39.25,-4.38,-169.39,80.9612770081
0.00890197511762,-0.0328546985984,-1.10466766357,82.2072510719,,,,,-50.12,-5.54,-170.59,80.9616391659
0.0221493337303,-0.0202237647027,-1.1101180315,82.2472891808,,,,,-52.66,-5.07,-171.19,80.9620001316
0.0330546796322,-0.0276508238167,-1.10276699066,82.249666214,,,,,-51.58,-4.12,-171.27,80.962362051
0.0443208292127,-0.0254976470023,-1.08996808529,82.2520411015,,,,,-41.95,-2.35,-169.94,80.963296175
0.0276194661856,-0.021049939096,-1.08897054195,82.2544870377,,,,,-38.05,-3.83,-169.04,80.9636859894
0.0205129645765,-0.0194842386991,-1.09249961376,82.2911350727,,,,,-42.48,-4.43,-169.51,80.9640460014
0.0330207273364,-0.0160175245255,-1.09970247746,82.2936301231,,,,,-49.77,-3.89,-170.17,80.9644081593
0.0260242018849,-0.021792082116,-1.10007715225,82.2960090637,,,,,-49.4,-2.73,-169.96,80.9647700787
0.0249259360135,-0.0297420229763,-1.10709798336,82.2983841896,,,,,-45.9,-1.45,-169.49,80.9657030106
0.0280952397734,-0.0258924085647,-1.10651957989,82.3007440567,,,,,-32.81,-0.13,-168.62,80.966094017
0.0336113534868,-0.00605510175228,-1.10203027725,82.3375132084,,,,,-36.81,-1.9,-169.48,80.9664549828
0.0208876412362,-0.0106808170676,-1.10330176353,82.3398931026,,,,,-41.73,-2.76,-170.1,80.9668171406
0.0198660586029,-0.0405528023839,-1.10436785221,82.3422920704,,,,,-46.01,-3.23,-170.69,80.9671781063
0.0315283611417,-0.0425342470407,-1.11520159245,82.3447010517,,,,,-47.05,-2.35,-171.25,80.9680931568
0.0319504365325,-0.0275426376611,-1.11909067631,82.3470790386,,,,,-35.91,-0.11,-170.52,80.9684832096
0.0262663494796,-0.0113047529012,-1.11172735691,82.3877131939,,,,,-35.41,-0.6,-170.64,80.9688580036
0.0222518984228,-0.000211164355278,-1.09044849873,82.3901381493,,,,,-38.08,-1.8,-171.29,80.9692270756
0.0182165149599,-0.0242041703314,-1.09956932068,82.3924980164,,,,,-48.41,-4.19,-173.55,80.9695971012
0.0115908905864,-0.0422115698457,-1.10572230816,82.3949081898,,,,,-52.24,-4.3,-174.2,80.970511198
0.0122629972175,-0.0265668500215,-1.08507621288,82.3972790241,,,,,-47.59,-1.07,-170.92,80.9709000587
0.0129804778844,-0.0118669290096,-1.08063077927,82.4366891384,,,,,-43.61,-0.57,-169.35,80.9712619781
0.0105752721429,-0.0255212653428,-1.10490942001,82.439084053,,,,,-41.41,-2.7,-168.85,80.9716231823
0.0101008536294,-0.0173344872892,-1.11125004292,82.4414570332,,,,,-43.89,-4.37,-169.8,80.9719851017
0.0240711346269,-0.0254747513682,-1.12044775486,82.4439129829,,,,,-50.13,-6.13,-171.12,80.972921133
0.0203008484095,-0.0444590002298,-1.13658738136,82.4813141823,,,,,-46.64,-4.15,-167.11,80.9733140469
0.00751405023038,-0.0353652909398,-1.14347827435,82.4837350845,,,,,-42.23,-4.23,-166.11,80.9737091064
0.0223265271634,-0.031749278307,-1.13979494572,82.4861431122,,,,,-38.35,-5.07,-166.15,80.9740700722
0.0255902130157,-0.0438346713781,-1.12317025661,82.488517046,,,,,-36.24,-7.09,-168.86,80.9744319916
0.0121033694595,-0.0410661026835,-1.11464297771,82.4908959866,,,,,-38.33,-7.28,-170.42,80.9753332138
0.0138011630625,-0.0225559193641,-1.11208593845,82.5281231403,,,,,-46.77,-5.07,-171.74,80.9757230282
0.0199947729707,-0.0129440817982,-1.11037170887,82.5305011272,,,,,-46.38,-4.98,-171.85,80.9760839939
0.0186088252813,-0.0167165938765,-1.09544277191,82.5329151154,,,,,-40.96,-6.04,-173.07,80.9764451981
0.0152914561331,-0.0174103397876,-1.08675730228,82.5353322029,,,,,-38.34,-6.38,-173.93,80.9768071175
-0.00162299524527,-0.0167045164853,-1.0919457674,82.5377080441,,,,,-39.24,-5.18,-174.62,80.9777071476
0.0014031791361,-0.01112745516,-1.1070394516,82.5773711205,,,,,-47.38,-3.94,-173.78,80.9780972004
0.012440841645,-0.0187161993235,-1.11528038979,82.5797770023,,,,,-53.37,-5.06,-172.95,80.9784591198
0.0136390794069,-0.0366635620594,-1.11478865147,82.5821959972,,,,,-53.39,-5.98,-172.88,80.9788200855
0.0141928382218,-0.0430003330112,-1.1098664999,82.5846691132,,,,,-49.39,-6.23,-172.63,80.9791810513
0.0196805354208,-0.0103362556547,-1.10025799274,82.5870461464,,,,,-46.93,-5.47,-172.33,80.9800820351
0.00490495190024,-0.0275978278369,-1.11479878426,82.6268870831,,,,,-47.04,-5.02,-171.03,80.9804711342
-0.00448152609169,-0.0499048158526,-1.11690819263,82.6292631626,,,,,-49.39,-5.89,-170.95,80.9808311462
0.00178143952508,-0.0301643889397,-1.09997451305,82.6316740513,,,,,-53.62,-6.99,-171.6,80.9811940193
-0.00418603420258,-0.0212059095502,-1.08694207668,82.634095192,,,,,-53.53,-6.54,-172.2,80.9815831184
0.00561013631523,-0.00809110887349,-1.08876860142,82.6712710857,,,,,-46.58,-4.99,-173.4,80.9825110435
0.0156547725201,-9.59075987339e-06,-1.08582341671,82.6736910343,,,,,-38.18,-4.55,-173.84,80.9829320908
0.00695229507983,-0.0128607433289,-1.09361195564,82.6760661602,,,,,-39.47,-5.49,-173.88,80.9832971096
-0.00146973121446,-0.0267598014325,-1.11240398884,82.6784780025,,,,,-44.16,-5.66,-174.16,80.9836580753
0.0118215605617,-0.0354110747576,-1.11332976818,82.6808559895,,,,,-52.26,-5.3,-175.47,80.9840199947
0.0149125438184,-0.0506465882063,-1.10481631756,82.7176921368,,,,,-51.9,-5.04,-176.03,80.9849221706
0.00811489205807,-0.0556679368019,-1.09704434872,82.7200541496,,,,,-38.41,-5.16,-174.37,80.9853110313
0.00734568294138,-0.0282667260617,-1.0653167963,82.7224299908,,,,,-37.04,-5.65,-172.91,80.9856710434
0.0183864738792,0.00727791897953,-1.06904828548,82.7248520851,,,,,-45.32,-7.56,-170.97,80.9860460758
0.00731515325606,-0.0189283769578,-1.09247970581,82.7272670269,,,,,-52.1,-8.68,-170.93,80.9864151478
-0.00172409403604,-0.034931011498,-1.09393620491,82.7673430443,,,,,-59.0,-9.71,-171.51,80.9873180389
0.00196715816855,-0.021018397063,-1.08678758144,82.7697060108,,,,,-53.08,-8.32,-170.11,80.9877080917
0.00202162191272,-0.0358439534903,-1.08749711514,82.772080183,,,,,-44.84,-7.14,-167.14,80.9880700111
-0.00176983687561,-0.0408935174346,-1.09372413158,82.7745330334,,,,,-44.14,-7.89,-166.22,80.9884309769
-0.000871578115039,-0.029093971476,-1.09058403969,82.7769081593,,,,,-46.45,-9.31,-166.12,80.988792181
0.0111045064405,-0.024232281372,-1.08844029903,82.8165950775,,,,,-54.05,-11.62,-167.87,80.9897260666
0.00958092231303,-0.0303607862443,-1.0950948,82.8189690113,,,,,-50.86,-6.44,-169.23,80.9901161194
0.00151215505321,-0.0302705336362,-1.09426522255,82.8213391304,,,,,-45.03,-4.26,-168.83,80.9904780388
0.00330978259444,-0.0391824021935,-1.09497177601,82.8237781525,,,,,-34.97,-3.76,-168.56,80.9908390045
0.00851097423583,-0.0295288246125,-1.09011375904,82.8611850739,,,,,-34.05,-5.36,-169.2,80.9912011623
0.00457892753184,-0.021494070068,-1.09620785713,82.8636300564,,,,,-40.59,-7.66,-171.6,80.9921021461
1.18018360808e-05,-0.0195343568921,-1.08827769756,82.8660051823,,,,,-47.78,-4.94,-173.38,80.9924910069
0.0027721747756,-0.0354933589697,-1.10252761841,82.868363142,,,,,-44.46,-0.7,-173.08,80.9928851128
0.0019612852484,-0.0371925681829,-1.11747515202,82.8707680702,,,,,-39.79,-0.2,-172.45,80.9932501316
-0.00499985925853,-0.010970575735,-1.1172555685,82.9084210396,,,,,-35.82,-1.18,-171.88,80.9936339855
0.00356930121779,-0.00967861525714,-1.09735035896,82.9108672142,,,,,-36.44,-4.79,-171.58,80.9945399761
0.0086579117924,-0.0236997622997,-1.08222413063,82.913285017,,,,,-50.08,-4.25,-172.04,80.9949281216
0.0072408337146,-0.0393194854259,-1.09130227566,82.9156601429,,,,,-51.47,-2.49,-171.45,80.9952890873
0.00121798750479,-0.034680776298,-1.10444021225,82.918102026,,,,,-49.83,-1.12,-170.51,80.995650053
0.00927698612213,-0.0361895561218,-1.10075235367,82.9570980072,,,,,-42.43,-1.13,-168.99,80.9960122108
0.013215770945,-0.0456885397434,-1.10677433014,82.9595050812,,,,,-40.36,-2.25,-169.12,80.9969232082
-0.0026273354888,-0.0397681817412,-1.11084198952,82.9618830681,,,,,-48.35,-2.99,-172.38,80.9973130226
0.00225002318621,-0.0193156786263,-1.10794782639,82.9642920494,,,,,-52.26,-1.7,-173.06,80.9977090359
0.00795999821275,-0.0149108227342,-1.12657880783,82.9667000771,,,,,-53.58,0.52,-172.73,80.9980721474
-0.00295845605433,-0.048928424716,-1.11583864689,83.0070981979,,,,,-50.72,0.49,-172.31,80.9984350204
-0.000218808534555,-0.0507409796119,-1.09189164639,83.0094730854,,,,,-43.1,-1.52,-172.47,80.9993371964
0.00643462501466,-0.0196909736842,-1.09286534786,83.011849165,,,,,-43.16,-2.14,-173.96,80.9997282028
0.00503120943904,-0.0146076139063,-1.10930526257,83.0142900944,,,,,-46.13,-1.57,-173.7,81.0000891685
0.0139228757471,-0.0341563820839,-1.12293839455,83.0498480797,,,,,-48.81,-1.32,-173.07,81.0004520416
0.0159367732704,-0.0351190268993,-1.11541211605,83.052229166,,,,,-48.95,-2.47,-171.97,81.0008130074
0.00468675605953,-0.0281811263412,-1.0988317728,83.0546731949,,,,,-46.18,-3.28,-171.82,81.0017151833
0.00876459106803,-0.0413454771042,-1.09226989746,83.057049036,,,,,-37.47,-2.76,-172.24,81.0021061897
0.00854483805597,-0.0514422282577,-1.11595892906,83.0594000816,,,,,-38.31,-2.13,-172.15,81.0024671555
-0.00221597589552,-0.0506239905953,-1.12999176979,83.0974152088,,,,,-45.27,-2.57,-171.83,81.0028531551
-0.00120467867237,-0.0259759817272,-1.11892271042,83.0997900963,,,,,-48.82,-3.47,-171.91,81.0032470226
-0.00136817980092,-0.0170914586633,-1.1053044796,83.1021990776,,,,,-50.25,-4.62,-172.32,81.004196167
-0.0013667679159,-0.0337217748165,-1.12177765369,83.1046161652,,,,,-44.16,-3.95,-172.19,81.0045881271
0.00178483140189,-0.0316210240126,-1.13198316097,83.1069931984,,,,,-40.16,-3.84,-171.61,81.0049881935
0.0143270958215,-0.0150823052973,-1.11493313313,83.1474599838,,,,,-41.74,-4.53,-171.49,81.0053691864
0.0128435306251,-0.0356345325708,-1.10888063908,83.1498692036,,,,,-50.1,-6.22,-171.98,81.005792141
0.000805959221907,-0.0750764831901,-1.12811541557,83.1522450447,,,,,-53.93,-6.48,-172.4,81.0067381859
0.00821835640818,-0.0569762662053,-1.13288652897,83.1546561718,,,,,-50.11,-5.26,-172.97,81.007171154
0.0307192523032,-0.0231350082904,-1.12012946606,83.1570131779,,,,,-44.99,-5.04,-172.91,81.0075621605
0.0334196537733,-0.0180959459394,-1.12704920769,83.1963942051,,,,,-39.33,-5.3,-172.65,81.0079250336
0.0172121133655,-0.0442032590508,-1.12476289272,83.198800087,,,,,-40.81,-5.55,-172.59,81.0083110332
0.00897948257625,-0.0778686180711,-1.13323748112,83.2011752129,,,,,-49.78,-5.95,-172.89,81.0092241764
0.0026716850698,-0.063968449831,-1.11930143833,83.2035911083,,,,,-53.9,-6.45,-173.61,81.0096390247
0.012944182381,-0.0398370176554,-1.12677109241,83.2399661541,,,,,-45.89,-6.35,-173.56,81.0100231171
0.0126663297415,-0.0595252588391,-1.13683176041,83.242347002,,,,,-40.44,-6.01,-172.83,81.0103859901
0.00328494608402,-0.0678075626493,-1.12909829617,83.244754076,,,,,-36.57,-6.09,-170.7,81.0107800961
0.0173588935286,-0.0560495182872,-1.13119649887,83.2471590042,,,,,-45.19,-8.84,-170.14,81.0117170811
0.0290315169841,-0.0417645350099,-1.13527154922,83.2495331764,,,,,-53.47,-11.35,-171.86,81.0121190548
0.0238656327128,-0.0253488812596,-1.13532459736,83.2878301144,,,,,-53.18,-10.93,-172.62,81.0125131607
0.015478650108,-0.0443331152201,-1.13667178154,83.2902040482,,,,,-44.95,-7.17,-172.14,81.0129301548
0.0117019377649,-0.0537402257323,-1.13557803631,83.2925770283,,,,,-40.31,-5.65,-171.35,81.0133261681
0.0124610327184,-0.0403044074774,-1.12929105759,83.2950251102,,,,,-38.77,-7.38,-171.25,81.0143101215
0.0257994681597,-0.0419002696872,-1.13234448433,83.297380209,,,,,-47.82,-11.81,-174.24,81.0147271156
0.0262053217739,-0.0337534248829,-1.11897301674,83.3370900154,,,,,-54.1,-10.62,-176.48,81.0151121616
0.0189486071467,-0.0407674387097,-1.11930382252,83.3394651413,,,,,-52.95,-7.72,-176.1,81.0154750347
0.0193558167666,-0.0555711612105,-1.13774347305,83.3418741226,,,,,-43.47,-3.55,-173.53,81.0158569813
0.0210887379944,-0.0568250119686,-1.15037107468,83.3442950249,,,,,-38.61,-4.34,-172.68,81.0168089867
0.0224615950137,-0.048621751368,-1.127607584,83.3466711044,,,,,-40.26,-10.89,-174.7,81.0171999931
0.0280812811106,-0.048620916903,-1.12380623817,83.3864560127,,,,,-44.05,-10.37,-175.61,81.0175611973
0.0288049746305,-0.0523516908288,-1.12483561039,83.3885149956,,,,,-47.22,-5.02,-175.17,81.0179240704
0.0265890117735,-0.0513365119696,-1.12766492367,83.3909192085,,,,,-44.61,-2.6,-174.08,81.0182840824
0.0275005996227,-0.0484253913164,-1.11685049534,83.3933320045,,,,,-35.29,-2.34,-172.53,81.0191860199
0.0272391475737,-0.0315660312772,-1.11446392536,83.4297130108,,,,,-33.34,-5.17,-173.33,81.0195760727
0.0194068364799,-0.032523393631,-1.12036800385,83.4320981503,,,,,-41.99,-4.76,-175.12,81.0199370384
0.0210830513388,-0.0547852292657,-1.12314224243,83.4344940186,,,,,-46.91,-3.43,-175.48,81.0202980042
0.0268058553338,-0.0417545065284,-1.14354169369,83.4368700981,,,,,-49.82,-2.1,-175.28,81.0206592083
0.0324042923748,-0.0229533072561,-1.14995622635,83.4392831326,,,,,-47.51,-1.22,-173.67,81.0215981007
0.0274177510291,-0.0354821830988,-1.13286364079,83.4776821136,,,,,-40.59,-3.09,-172.2,81.0219900608
0.0213108435273,-0.0480844527483,-1.12563991547,83.4800570011,,,,,-41.76,-3.5,-172.56,81.0223519802
0.0203631259501,-0.0416834577918,-1.13524031639,83.4824330807,,,,,-44.4,-3.62,-173.2,81.0227131844
0.0296219531447,-0.0145877618343,-1.13948011398,83.4848890305,,,,,-49.87,-2.82,-174.14,81.0231151581
0.0143664516509,-0.0320557206869,-1.14291000366,83.487293005,,,,,-50.7,-2.02,-174.06,81.0240211487
0.00201074965298,-0.074713639915,-1.14272677898,83.5275871754,,,,,-44.12,-0.13,-173.38,81.0244100094
0.0111881205812,-0.0755541399121,-1.13975310326,83.5299620628,,,,,-39.28,-0.76,-174.63,81.0247721672
0.0161713603884,-0.0446485728025,-1.13546097279,83.5323240757,,,,,-39.21,-1.01,-175.61,81.0251321793
0.0231056176126,-0.0217079687864,-1.11712837219,83.5347690582,,,,,-41.01,-0.84,-176.31,81.0254940987
0.0209304038435,-0.0317666828632,-1.12094724178,83.5371420383,,,,,-46.41,0.55,-176.36,81.0263910294
0.0249503199011,-0.0491619259119,-1.13446569443,83.5762701035,,,,,-42.94,-0.25,-175.59,81.0267810822
0.0349903553724,-0.0515452772379,-1.1270314455,83.5786449909,,,,,-38.38,-1.57,-175.82,81.0271420479
0.0344328060746,-0.0528442189097,-1.1163829565,83.581043005,,,,,-34.89,-2.59,-176.01,81.0275211334
0.0242389347404,-0.0544753298163,-1.11656308174,83.5834820271,,,,,-36.57,-2.57,-175.1,81.0278921127
0.0229326300323,-0.0404252335429,-1.13120269775,83.6199121475,,,,,-41.46,-2.13,-173.94,81.0288271904
0.0391518697143,-0.0310497265309,-1.16059792042,83.622303009,,,,,-52.26,-4.69,-171.17,81.0292170048
0.0293513461947,-0.0233573373407,-1.14641726017,83.6247169971,,,,,-50.67,-6.19,-171.15,81.0296120644
0.0199739299715,-0.0304375048727,-1.12340164185,83.6270720959,,,,,-45.33,-6.12,-171.36,81.0299739838
0.0268502794206,-0.035592250526,-1.12604761124,83.6294620037,,,,,-44.85,-4.49,-170.95,81.0303370953
0.0316473469138,-0.0342568159103,-1.13096427917,83.6679060459,,,,,-50.63,-2.17,-168.91,81.0312530994
0.0249420870095,-0.0420041233301,-1.12747311592,83.6706440449,,,,,-58.21,-4.95,-168.01,81.0316441059
0.0160832758993,-0.0514362454414,-1.12527287006,83.6730589867,,,,,-59.53,-7.74,-169.56,81.0320050716
0.0288323797286,-0.0468816831708,-1.12535333633,83.6754391193,,,,,-57.65,-6.85,-170.73,81.0323681831
0.037397544831,-0.0291186627001,-1.12391006947,83.6779110432,,,,,-52.06,-1.82,-172.01,81.0327281952
0.034982316196,-0.0252498034388,-1.14260137081,83.7170879841,,,,,-49.59,-0.22,-172.04,81.0336661339
0.0291216261685,-0.0242605227977,-1.14643454552,83.7194809914,,,,,-50.85,-5.59,-173.01,81.0340571404
0.0313115566969,-0.028033612296,-1.13789117336,83.7218561172,,,,,-53.56,-7.43,-174.25,81.0344181061
0.0314487405121,-0.0330922454596,-1.13315975666,83.7242720127,,,,,-55.96,-5.39,-177.31,81.0347800255
0.0369614511728,-0.0345589146018,-1.13105607033,83.7266759872,,,,,-53.78,-2.3,-178.42,81.0351409912
0.0307796616107,-0.0311874877661,-1.13476407528,83.7663981915,,,,,-44.2,1.16,-178.89,81.0360431671
0.0222737584263,-0.0209680553526,-1.15833389759,83.7687721252,,,,,-39.56,-2.31,-177.82,81.0364341736
0.0284423101693,-0.00987905077636,-1.16378641129,83.7711331844,,,,,-46.34,-5.64,-177.05,81.0367951393
0.034485667944,-0.025553451851,-1.14690136909,83.7735731602,,,,,-50.41,-4.96,-176.89,81.037156105
0.0276098269969,-0.0544831827283,-1.13930153847,83.8096551895,,,,,-51.22,-0.79,-176.19,81.0375511646
0.0301685128361,-0.0702211782336,-1.13705158234,83.8120341301,,,,,-47.69,0.62,-175.28,81.0384840965
0.0376109629869,-0.0524316206574,-1.12628555298,83.8144609928,,,,,-41.58,-1.41,-172.56,81.0388731956
0.0455478951335,-0.026592573151,-1.12936019897,83.8168389797,,,,,-45.19,-2.41,-172.49,81.0392651558
0.0371738672256,-0.0315690413117,-1.13729763031,83.8192100525,,,,,-54.3,-2.11,-173.73,81.0396361351
0.0254507698119,-0.0317321568727,-1.1391313076,83.8584301472,,,,,-56.25,-1.2,-174.43,81.0400311947
0.0300129950047,-0.0152140092105,-1.13623726368,83.860804081,,,,,-52.82,0.51,-174.61,81.0409400463
0.0306022260338,-0.0223694536835,-1.13533759117,83.8632440567,,,,,-46.95,0.76,-174.13,81.0413310528
0.0146356094629,-0.0334378629923,-1.13177895546,83.8656201363,,,,,-48.12,-0.57,-174.45,81.0416932106
0.0211905166507,-0.0216819588095,-1.13780927658,83.8679950237,,,,,-50.52,-1.77,-174.97,81.0420541763
0.0374962985516,-0.036047950387,-1.14646422863,83.9073691368,,,,,-53.92,-3.86,-175.41,81.0424170494
0.0364550575614,-0.0439656078815,-1.13398325443,83.9097721577,,,,,-53.36,-4.03,-175.06,81.0433430672
0.026614157483,-0.0406952649355,-1.12230420113,83.9121470451,,,,,-45.31,-1.96,-173.4,81.04373312
0.0250364821404,-0.0465535596013,-1.1528236866,83.9145591259,,,,,-43.09,-2.14,-173.34,81.0440950394
0.0292965993285,-0.0384837165475,-1.16038322449,83.9169340134,,,,,-43.11,-5.26,-173.97,81.0444571972
0.0396248102188,-0.0320688262582,-1.13897490501,83.9552330971,,,,,-44.82,-6.91,-174.35,81.0448191166
0.0538048073649,-0.0557045415044,-1.13169741631,83.9576280117,,,,,-48.15,-7.21,-174.65,81.0457561016
0.0459063388407,-0.0523664653301,-1.12772059441,83.9600050449,,,,,-46.64,-4.47,-174.43,81.0461471081
0.037530284375,-0.0195482503623,-1.10353207588,83.9623801708,,,,,-40.76,-5.01,-174.39,81.0465090275
0.0362791344523,0.00465606711805,-1.08772563934,83.999767065,,,,,-38.74,-6.95,-174.48,81.0468699932
0.0400994457304,-0.00546243786812,-1.09687709808,84.0021431446,,,,,-38.38,-8.92,-174.67,81.047232151
0.0328306518495,-0.0219258684665,-1.11300551891,84.0045621395,,,,,-42.79,-9.71,-174.85,81.0481359959
0.0251117236912,-0.0197405200452,-1.11470890045,84.0069720745,,,,,-47.13,-6.46,-174.25,81.0485260487
0.0190933924168,-0.0158044677228,-1.11632061005,84.0093491077,,,,,-45.48,-7.26,-174.05,81.0488870144
0.0184309761971,-0.0218198560178,-1.13216435909,84.0478579998,,,,,-40.83,-10.76,-174.22,81.0492491722
0.0279263593256,-0.031517162919,-1.14206314087,84.0502340794,,,,,-39.96,-11.59,-174.38,81.0496101379
0.0377027019858,-0.0360608547926,-1.1366339922,84.0526070595,,,,,-40.8,-11.08,-174.3,81.0505130291
0.035824790597,-0.0368810668588,-1.1357036829,84.0550880432,,,,,-47.99,-8.68,-172.55,81.0509240627
0.0336122885346,-0.0552346482873,-1.14236950874,84.0574631691,,,,,-49.97,-12.3,-171.81,81.0512871742
0.0214229822159,-0.0640800222754,-1.13517653942,84.0969791412,,,,,-48.82,-14.27,-172.02,81.0516490936
0.0359998941422,-0.0295592565089,-1.12076163292,84.0993750095,,,,,-46.65,-14.95,-172.39,81.0520160198
0.0317578911781,-0.0294446740299,-1.12558913231,84.1017870903,,,,,-41.36,-12.24,-172.61,81.0529551506
0.0231801010668,-0.0492609962821,-1.12159264088,84.1042029858,,,,,-43.05,-12.01,-171.55,81.0533471107
0.0334047824144,-0.0475127324462,-1.11988544464,84.106577158,,,,,-46.14,-14.27,-171.92,81.0537381172
0.0461825467646,-0.0312373992056,-1.10981273651,84.1453611851,,,,,-48.58,-16.08,-172.82,81.0541009903
0.0415392108262,-0.0206250306219,-1.09632217884,84.1477332115,,,,,-46.74,-14.73,-174.94,81.0544621944
0.0173247549683,-0.0109491925687,-1.11238765717,84.1501400471,,,,,-42.39,-12.09,-175.35,81.0553641319
0.0199307966977,-0.0244885850698,-1.1304038763,84.1525461674,,,,,-35.16,-10.02,-174.17,81.0557551384
0.0265123657882,-0.0308960136026,-1.13015663624,84.1885449886,,,,,-38.61,-12.3,-174.32,81.0561151505
0.0337303429842,-0.0187602099031,-1.10803854465,84.1909520626,,,,,-48.2,-15.03,-176.34,81.0564780235
0.0447930842638,-0.0184138845652,-1.10371518135,84.1933581829,,,,,-49.97,-13.81,-177.46,81.056841135
0.0349767766893,-0.0291310679168,-1.11137509346,84.196046114,,,,,-44.15,-8.4,-177.75,81.0577270985
0.0254733003676,-0.0217255987227,-1.11849331856,84.1984670162,,,,,-35.0,-8.89,-175.01,81.0581171513
0.0332649052143,-0.0404058024287,-1.11589467525,84.2374641895,,,,,-37.75,-11.02,-174.86,81.058478117
0.0264544468373,-0.0493009313941,-1.12380445004,84.2398531437,,,,,-42.13,-12.33,-175.39,81.0588390827
0.0183261465281,-0.00646403990686,-1.11306452751,84.2422270775,,,,,-47.57,-10.16,-177.05,81.0592010021
0.0322533398867,-0.0116967167705,-1.11751818657,84.2446410656,,,,,-46.18,-7.52,-177.31,81.0601019859
0.0236786007881,-0.0314349830151,-1.11071813107,84.2470500469,,,,,-33.74,-4.69,-175.14,81.0604910851
0.00724084395915,-0.0101619604975,-1.0875903368,84.2876050472,,,,,-33.23,-6.13,-174.51,81.0608780384
0.0196682550013,-0.00212087761611,-1.0929377079,84.2899830341,,,,,-40.89,-8.58,-174.93,81.0612411499
0.0177590921521,-0.0231915805489,-1.10345065594,84.2923560143,,,,,-46.18,-8.29,-175.71,81.06163311
0.014876851812,-0.031564027071,-1.10850298405,84.2948009968,,,,,-50.85,-14372264.11,9216.01,81.0625879765
0.0237487256527,-0.00619306415319,-1.1221973896,84.2971830368,,,,,-50.26,-14.59,-172.67,81.0630161762
0.0248525962234,0.0117682889104,-1.12212920189,84.3352692127,,,,,-52.42,-16.75,-173.14,81.0633821487
0.0202531814575,-0.00179541110992,-1.11801743507,84.3376410007,,,,,-51.42,-18.26,-173.69,81.0637440681
0.0107032572851,-0.0323805734515,-1.12003731728,84.3400161266,,,,,-42.66,-16.99,-174.07,81.0646471977
0.00294303894043,-0.0467929765582,-1.11930465698,84.3424110413,,,,,-38.83,-13.71,-172.52,81.0650360584
0.0131873767823,-0.0242703165859,-1.09979271889,84.3783512115,,,,,-42.88,-15.46,-172.45,81.0653991699
0.0254231002182,-0.0120346061885,-1.0962613821,84.3807210922,,,,,-50.91,-19.82,-173.86,81.0657601357
0.0269724037498,-0.0164695773274,-1.09877729416,84.3831632137,,,,,-51.5,-20.14,-174.89,81.0661211014
0.02456150949,-0.0118470732123,-1.10786426067,84.3855400085,,,,,-44.65,-16.27,-175.71,81.0670189857
0.0118309240788,-0.00778706930578,-1.11418807507,84.387909174,,,,,-36.11,-13.64,-174.37,81.0674080849
0.018004167825,-0.00774719752371,-1.10208117962,84.4278981686,,,,,-37.89,-17.67,-173.68,81.0677690506
0.0233931597322,-0.012990212068,-1.09303629398,84.4303081036,,,,,-42.26,-20.1,-174.5,81.0681300163
0.0201824791729,-0.0264347661287,-1.09119594097,84.432682991,,,,,-46.64,-21.11,-175.95,81.0684921741
0.0107457209378,-0.0317073836923,-1.08797562122,84.4351000786,,,,,-48.82,-17.59,-178.27,81.0694429874
0.00277362018824,-0.0109521262348,-1.10556828976,84.4374761581,,,,,-37.13,-13.64,-175.68,81.0698530674
-0.0106297396123,-0.0191493462771,-1.11195886135,84.4768850803,,,,,-36.02,-15.87,-174.59,81.0702140331
-0.0097165517509,-0.0326644703746,-1.10351574421,84.4792790413,,,,,-38.44,-18.77,-174.37,81.0705761909
0.0180751644075,-0.0346697941422,-1.0885155201,84.4816551208,,,,,-49.37,-21.36,-176.27,81.0709371567
0.00950393080711,-0.0298806298524,-1.08012843132,84.4840681553,,,,,-53.77,-19.93,-177.2,81.0718359947
0.00426264479756,-0.0227782931179,-1.0756393671,84.4864661694,,,,,-50.54,-14.11,-174.53,81.0722270012
0.0103119313717,-0.0227821897715,-1.07347142696,84.5251932144,,,,,-45.17,-16.45,-172.25,81.0725882053
0.0066463407129,-0.0329030156136,-1.07750749588,84.5276010036,,,,,-45.89,-18.45,-172.49,81.0729839802
0.00953778345138,-0.0272486116737,-1.07233321667,84.5299789906,,,,,-48.77,-19.62,-173.45,81.073346138
0.0118451630697,-0.0291615854949,-1.07358705997,84.532351017,,,,,-54.89,-18.34,-175.05,81.0742800236
0.00597267970443,-0.050821326673,-1.07255887985,84.5682730675,,,,,-50.99,-14.16,-172.57,81.0746719837
0.00596407987177,-0.0490303561091,-1.08191919327,84.570649147,,,,,-47.06,-14.39,-172.09,81.0750341415
0.00313612446189,-0.0115948393941,-1.0936319828,84.573059082,,,,,-43.73,-15.31,-172.33,81.0753951073
-0.00411385856569,0.00167039781809,-1.10676693916,84.5754640102,,,,,-41.18,-17.03,-174.18,81.0757551193
-0.0149795301259,-0.00537483301014,-1.11396288872,84.5778419971,,,,,-41.85,-17.21,-174.86,81.0766561031
-0.0226647444069,-0.0108544733375,-1.09371459484,84.6183080673,,,,,-45.3,-15.37,-174.26,81.0770452023
-0.035430431366,-0.0315364301205,-1.09764921665,84.6206841469,,,,,-44.54,-14.97,-174.11,81.0774240494
-0.0540622249246,-0.0188643652946,-1.08381927013,84.62312603,,,,,-39.25,-15.43,-174.61,81.0778050423
-0.0707948133349,-0.00579091720283,-1.05567789078,84.6254980564,,,,,-36.25,-16.16,-174.81,81.0781672001
-0.0902511999011,-0.0105118025094,-1.05476725101,84.6278719902,,,,,-35.03,-17.29,-174.08,81.0790660381
-0.100360043347,-0.0174279715866,-1.0659276247,84.6669871807,,,,,-42.54,-17.08,-172.79,81.0794541836
-0.103789970279,-0.0196197945625,-1.06874167919,84.6694040298,,,,,-51.62,-16.4,-172.45,81.0798270702
-0.09872405231,-0.0193355623633,-1.06270945072,84.6718091965,,,,,-52.99,-16.52,-172.64,81.0801980495
-0.0862057209015,-0.0182342026383,-1.07039892673,84.67425704,,,,,-48.6,-17.52,-172.64,81.0805602074
-0.0643242970109,-0.0228560846299,-1.08709061146,84.7111899853,,,,,-45.07,-17.82,-172.41,81.0814599991
-0.0398608669639,-0.00843404605985,-1.06235778332,84.7136111259,,,,,-47.23,-16.59,-172.13,81.0818500519
-0.0161796882749,-0.0243763122708,-1.02289378643,84.7159922123,,,,,-51.79,-16.22,-172.55,81.0822110176
-0.0114823654294,-0.0513056218624,-1.01469576359,84.7184040546,,,,,-56.52,-17.15,-174.0,81.0825710297
0.0100680934265,-0.0349749773741,-1.00671780109,84.7207779884,,,,,-54.2,-17.97,-174.66,81.0829660892
0.032142944634,0.000144248828292,-1.00177562237,84.7576291561,,,,,-43.16,-18.48,-175.25,81.0838701725
0.032353233546,-0.00565416086465,-1.01117062569,84.760007143,,,,,-37.42,-17.14,-174.73,81.084261179
0.0384818837047,-0.00969139300287,-0.996401190758,84.7623801231,,,,,-45.07,-17.93,-174.28,81.0846221447
0.0391896888614,0.0136121381074,-0.988256216049,84.7647960186,,,,,-50.91,-19.59,-174.48,81.0849831104
0.034294359386,0.02020974271,-1.00645446777,84.7672011852,,,,,-56.0,-22.64,-175.38,81.0853450298
0.0247154645622,0.00602292641997,-1.02764439583,84.8076291084,,,,,-53.83,-22.72,-175.37,81.0862979889
0.0212884750217,-0.00500214099884,-1.03968095779,84.8100061417,,,,,-43.31,-19.48,-172.17,81.0866880417
0.0179721023887,0.00192938558757,-1.0186355114,84.8123672009,,,,,-44.29,-20.16,-171.21,81.0870490074
0.00882412306964,0.01057690382,-1.01155078411,84.8148150444,,,,,-53.0,-25.24,-171.99,81.0874111652
0.0195478312671,0.0133811254054,-1.0068936348,84.8171889782,,,,,-57.14,-27.34,-173.51,81.087772131
0.0262261219323,0.00808677263558,-1.00860476494,84.8574841022,,,,,-58.12,-26.05,-175.3,81.0886740685
0.0128248911351,-0.00646048225462,-1.0103110075,84.8598611355,,,,,-50.68,-20.61,-173.51,81.0890641212
0.0105770938098,-0.015834024176,-1.00460147858,84.8622682095,,,,,-46.31,-20.99,-172.05,81.089425087
0.0157410558313,-0.00694526545703,-0.991250991821,84.8646781445,,,,,-47.99,-23.99,-172.97,81.0897860527
0.0221571624279,0.0102546196431,-0.96022439003,84.9015641212,,,,,-55.92,-28.73,-176.83,81.0901470184
0.0138446949422,0.0180616434664,-0.964470148087,84.9039800167,,,,,-58.8,-28.17,-177.98,81.0910470486
0.0145956045017,0.0170861054212,-0.972516417503,84.9063580036,,,,,-53.2,-20.35,-174.13,81.0914361477
0.0189245864749,0.00639762915671,-0.966998755932,84.9087340832,,,,,-48.42,-20.14,-172.45,81.0917971134
0.0167477000505,-0.00200324319303,-0.950586259365,84.9111421108,,,,,-43.61,-24.47,-172.46,81.0921580791
0.0194183476269,0.0020890366286,-0.936099350452,84.9480969906,,,,,-44.72,-26.5,-173.73,81.0925180912
0.0112680643797,-0.00556375458837,-0.922335267067,84.9505081177,,,,,-50.14,-25.6,-175.34,81.093473196
0.00442776083946,-0.00976281985641,-0.90879625082,84.952917099,,,,,-52.06,-21.29,-173.6,81.0938801765
0.0185701493174,-0.00867218710482,-0.91025608778,84.9552960396,,,,,-46.46,-20.6,-171.91,81.0942411423
0.021446576342,-0.00772489979863,-0.922832369804,84.9577031136,,,,,-43.27,-21.72,-172.15,81.094602108
0.00904439017177,3.22032719851e-05,-0.93390583992,84.9971921444,,,,,-41.48,-22.77,-173.03,81.0949630737
0.00720672402531,0.000164935365319,-0.937710285187,84.9995980263,,,,,-43.38,-22.49,-175.0,81.0958650112
0.0123290661722,-0.0107937455177,-0.953172087669,85.0019750595,,,,,-51.28,-20.82,-174.84,81.0962541103
0.00849867705256,-0.0181110557169,-0.958226203918,85.0043721199,,,,,-51.78,-21.35,-174.48,81.0966150761
0.00689375121146,-0.0151008535177,-0.965990424156,85.0067741871,,,,,-50.83,-22.15,-174.23,81.0969951153
0.0157706364989,-0.00619285926223,-0.964744389057,85.0470831394,,,,,-45.97,-22.89,-174.0,81.0973591805
0.0187871586531,-0.00119789689779,-0.968212842941,85.0494589806,,,,,-43.43,-22.74,-173.85,81.0982592106
0.0225933939219,0.00241766311228,-0.999372601509,85.0518331528,,,,,-44.21,-23.15,-173.61,81.098649025
0.0176759827882,-0.00571885332465,-1.01947915554,85.0542781353,,,,,-51.05,-23.96,-174.59,81.0990111828
0.0144318901002,-0.00235307961702,-1.02265405655,85.0911920071,,,,,-52.79,-23.88,-175.29,81.0993721485
0.0235657431185,0.00140246190131,-1.03186392784,85.0936360359,,,,,-51.93,-23.47,-175.91,81.0997340679
0.0289620254189,-0.00501800794154,-1.03122138977,85.0960121155,,,,,-43.11,-22.64,-176.6,81.1006360054
0.0251684114337,-0.00423088017851,-1.02283346653,85.098388195,,,,,-37.84,-23.21,-177.32,81.1010241508
0.0268668811768,-0.00738015584648,-1.02734172344,85.1007630825,,,,,-42.21,-23.41,-177.82,81.1014010906
0.0290561281145,-0.0157295856625,-1.0377625227,85.1374280453,,,,,-47.14,-23.58,-178.42,81.1017789841
0.0262997746468,-0.0210861377418,-1.04861521721,85.1398031712,,,,,-49.64,-24.02,-179.1,81.1021420956
0.019028134644,-0.012945426628,-1.05197453499,85.1422100067,,,,,-45.52,-24.4,-178.79,81.1030740738
0.0105777513236,-0.00494169350713,-1.07653260231,85.1446201801,,,,,-35.19,-25.19,-175.91,81.1034650803
0.0159367546439,-0.00475052557886,-1.08728766441,85.1469910145,,,,,-39.17,-25.47,-175.08,81.1038269997
0.0227223839611,-0.00486070010811,-1.08078610897,85.1874411106,,,,,-53.69,-27.51,-174.58,81.1041870117
0.0261150244623,-0.00295672006905,-1.07554399967,85.1898510456,,,,,-58.7,-29.04,-174.62,81.1045501232
0.0198535695672,-0.00279592815787,-1.06343364716,85.1922261715,,,,,-57.94,-30.83,-173.84,81.1054520607
0.0205063093454,-0.00176059640944,-1.05077981949,85.1946380138,,,,,10401873.72,12415139.73,-503317.15,81.1058430672
0.0337127521634,-0.0106479413807,-1.04660952091,85.1970121861,,,,,-50.91,-27.2,-170.36,81.1062049866
0.0316496379673,-0.0117009915411,-1.05186462402,85.2364230156,,,,,-53.78,-28.25,-170.54,81.1065671444
0.0282943286002,-0.00495575647801,-1.05336046219,85.2388291359,,,,,-58.72,-32.34,-172.14,81.1069281101
0.0247428212315,-0.00149840116501,-1.03741168976,85.241204977,,,,,-58.78,-33.1,-172.77,81.1078460217
0.0184508413076,-0.00688401982188,-1.03937602043,85.2436161041,,,,,-49.91,-26.85,-171.86,81.1082379818
0.021347405389,-0.00604468863457,-1.04996216297,85.2798931599,,,,,-46.33,-25.3,-171.3,81.1085979939
0.0269851479679,0.00408019497991,-1.0501614809,85.2822751999,,,,,-43.61,-28.54,-171.49,81.108959198
0.0240550283343,0.00121056847274,-1.03725278378,85.2847270966,,,,,-45.09,-31.74,-172.25,81.1093192101
0.0195065606385,-0.0166258998215,-1.04646515846,85.2871351242,,,,,-50.65,-33.97,-173.54,81.1102380753
0.0169122088701,-0.013061452657,-1.04814326763,85.2895200253,,,,,-52.93,-28.8,-172.88,81.1106410027
0.0207524057478,0.000632492825389,-1.0461987257,85.3277711868,,,,,-48.35,-25.61,-171.48,81.1110091209
0.0265670139343,-0.00496429018676,-1.02407491207,85.3301441669,,,,,-45.38,-27.11,-171.39,81.1113710403
0.0223366785794,-0.0109858214855,-1.02366101742,85.3325150013,,,,,-44.26,-31.85,-172.84,81.1117320061
0.0261383745819,-0.000202296301723,-1.03601002693,85.3349630833,,,,,-46.16,-32.27,-173.83,81.1126480103
0.0325539112091,-0.00295246206224,-1.03612482548,85.3373410702,,,,,-52.12,-25.08,-173.92,81.1131560802
0.0225076787174,-0.0155524536967,-1.04186022282,85.3770241737,,,,,-51.37,-23.73,-173.36,81.1135220528
0.0113041391596,-0.00880263932049,-1.0469315052,85.3793990612,,,,,-46.92,-25.76,-173.25,81.1138830185
0.00818972103298,-0.00559576041996,-1.05154407024,85.3817930222,,,,,-44.98,-27.33,-173.88,81.1142451763
0.0171303041279,-0.00709064118564,-1.04615533352,85.384209156,,,,,-44.04,-27.13,-175.06,81.1151502132
0.0137688778341,0.0109209101647,-1.03126847744,85.3865840435,,,,,-46.74,-24.42,-174.56,81.1155400276
0.0140862129629,0.0176764149219,-1.0268330574,85.4262712002,,,,,-50.57,-25.32,-173.81,81.1159009933
0.02532431297,0.0062816683203,-1.03216063976,85.4286470413,,,,,-51.77,-26.91,-173.97,81.1162621975
0.020071554929,0.002909200266,-1.03155744076,85.4310560226,,,,,-50.58,-28.38,-174.83,81.1166241169
0.00738994870335,0.0109316576272,-1.03689730167,85.4334599972,,,,,-48.23,-27.57,-175.05,81.1175591946
-0.000758532318287,0.00164952874184,-1.03926253319,85.4696531296,,,,,-44.17,-26.61,-175.26,81.117950201
0.00300178490579,-0.0140034835786,-1.02760362625,85.4720311165,,,,,-46.92,-28.36,-175.96,81.1183130741
0.00971846375614,0.00300574488938,-1.01554000378,85.4744420052,,,,,-54.72,-31.94,-177.97,81.1186740398
0.00113457266707,0.0103795100003,-1.00079536438,85.4768490791,,,,,-56.31,-32.14,-178.4,81.1190361977
-0.00662418454885,0.0196034889668,-0.985490322113,85.4792551994,,,,,-50.48,-29.37,-177.32,81.1545810699
-0.00324774160981,0.0189303662628,-0.960166931152,85.5175271034,,,,,-41.01,-28.21,-175.68,81.1549730301
0.00892046280205,-0.00274778250605,-0.965374946594,85.5199081898,,,,,-42.93,-31.38,-175.97,81.1553361416
0.0196156706661,0.00135819427669,-0.980171322823,85.5222849846,,,,,-47.58,-33.07,-176.48,81.155698061
0.0224852152169,0.00853769667447,-0.980225324631,85.5247561932,,,,,-52.03,-33.77,-176.56,81.1560599804
0.0245825108141,0.0113100092858,-0.9712241292,85.5271630287,,,,,-48.69,-30.19,-173.24,81.15696311
0.0205439664423,0.0104644093663,-0.972446501255,85.5674750805,,,,,-41.31,-29.12,-171.33,81.1573531628
0.0189168862998,0.00937564112246,-0.971933782101,85.5698530674,,,,,-41.85,-29.85,-171.48,81.1577479839
0.0178550053388,0.00766744278371,-0.984557986259,85.5722260475,,,,,-51.03,-32.02,-173.09,81.1581101418
0.0143862944096,0.00490791164339,-0.996516704559,85.5746741295,,,,,-55.69,-32.43,-173.89,81.1584720612
0.0183350071311,0.00356283411384,-0.988623142242,85.577049017,,,,,-57.37,-31.38,-174.44,81.159373045
0.0149259418249,-0.000382216647267,-0.971288502216,85.6151621342,,,,,-52.12,-29.08,-173.93,81.1597630978
0.00313445366919,-0.00663790106773,-0.965328574181,85.6175301075,,,,,-50.99,-28.38,-174.13,81.1601240635
0.00590943917632,-0.00137751549482,-0.982689857483,85.6199030876,,,,,-53.18,-28.96,-174.66,81.1604850292
0.023300351575,-0.00418378878385,-0.997042059898,85.6223111153,,,,,-55.67,-29.98,-175.39,81.1608459949
0.0437181517482,-0.00380450952798,-0.992950439453,85.6596930027,,,,,-57.45,-31.35,-176.56,81.1617460251
0.0537590906024,0.0141916479915,-0.966079890728,85.6621000767,,,,,-52.89,-28.58,-175.69,81.1621360779
0.0664917454123,0.0374679267406,-0.94096404314,85.6645150185,,,,,-51.85,-27.75,-175.25,81.1624970436
0.0870933532715,0.0345450267196,-0.931511521339,85.666891098,,,,,-51.24,-27.87,-175.09,81.1629040241
0.0835743322968,0.00205149315298,-0.938328802586,85.6692681313,,,,,-49.76,-30.79,-175.76,81.1632699966
0.0662234351039,-0.0138095021248,-0.96039134264,85.7084040642,,,,,-49.04,-32.05,-176.19,81.1641740799
0.0588443651795,-0.00773089192808,-0.965067863464,85.7108089924,,,,,-51.57,-30.17,-175.76,81.1645650864
0.0537236481905,-0.00153627619147,-0.959919095039,85.7132279873,,,,,-53.51,-28.83,-175.38,81.1649270058
0.0429687462747,0.00374607555568,-0.960031509399,85.7156071663,,,,,-52.78,-29.41,-175.58,81.1652882099
0.0292751584202,0.0108395572752,-0.975357174873,85.7180120945,,,,,-49.85,-31.02,-176.09,81.1656811237
0.0220874808729,-0.00862865708768,-0.977963209152,85.7571070194,,,,,-44.72,-32.89,-176.94,81.2004041672
0.01638440229,-0.0226213913411,-0.97846698761,85.7595210075,,,,,-54.67,-29.07,-176.43,81.2007961273
0.00824600737542,-0.021543784067,-0.978623270988,85.7618970871,,,,,-58.45,-28.58,-176.59,81.2011590004
0.00671641528606,-0.0103463437408,-0.98547577858,85.764316082,,,,,-59.15,-29.24,-177.05,81.2015202045
0.0137461889535,-0.00310841854662,-0.982531428337,85.7667272091,,,,,-51.22,-31.73,-177.97,81.2018821239
0.00207768380642,-0.0283814426512,-0.972236990929,85.805118084,,,,,-46.54,-32.06,-177.75,81.202778101
-0.0144346877933,-0.0170379132032,-0.969090282917,85.8075251579,,,,,-52.06,-29.47,-173.69,81.203204155
-0.0178268440068,0.0062490683049,-0.987336397171,85.8099050522,,,,,-58.1,-29.99,-172.46,81.203567028
-0.0139797218144,-0.017445454374,-1.01466488838,85.8122780323,,,,,-63.97,-33.85,-171.47,81.2039279938
-0.0136203169823,-0.029558295384,-1.02098727226,85.8491520882,,,,,-62.16,-35.49,-171.33,81.2042901516
-0.0192178227007,-0.0099935438484,-1.03206062317,85.8515281677,,,,,-55.23,-34.88,-170.42,81.2051930428
-0.0234685763717,0.00503442063928,-1.0196325779,85.8539571762,,,,,-54.5,-32.55,-168.97,81.2056109905
-0.0329639241099,0.00472722202539,-1.01842284203,85.8563320637,,,,,-61.35,-35.2,-169.57,81.205974102
-0.0319539755583,-0.00485287327319,-1.03355431557,85.8587090969,,,,,-64.69,-37.84,-170.78,81.2063350677
-0.0277476869524,-0.00541653297842,-1.0299052,85.8974061012,,,,,-65.09,-39.81,-173.51,81.2066969872
-0.0298213008791,-0.0106342602521,-1.03135728836,85.899780035,,,,,-62.02,-38.06,-174.33,81.2075982094
-0.0327867642045,-0.00987901166081,-1.03591454029,85.9021890163,,,,,-50.5,-32.85,-174.7,81.2079880238
-0.0204608477652,-0.00482869613916,-1.02604019642,85.9046041965,,,,,-50.01,-34.45,-175.0,81.2083489895
-0.0170926563442,0.0120773240924,-1.03958046436,85.906979084,,,,,-54.6,-39.84,-176.29,81.2087090015
-0.0248731039464,0.0188385713845,-1.04155910015,85.9473071098,,,,,-57.32,-40.81,-176.81,81.2090711594
-0.0239451006055,0.0106002576649,-1.04067802429,85.9497129917,,,,,-57.65,-37.0,-176.27,81.2099730968
-0.0279744677246,0.0129922796041,-1.01856744289,85.9521410465,,,,,-51.76,-32.83,-174.12,81.2103550434
-0.0306880716234,0.0136661920696,-1.00574338436,85.9545621872,,,,,-49.77,-35.45,-173.03,81.247066021
-0.0241263844073,0.00160491839051,-1.02224326134,85.9569380283,,,,,-52.0,-37.96,-173.45,81.2474300861
-0.0320651531219,-0.00106288306415,-1.02955472469,85.9950711727,,,,,-58.53,-39.23,-175.1,81.2477910519
-0.03321634233,0.00525064393878,-1.05003488064,85.9974431992,,,,,-60.06,-37.37,-175.56,81.2486870289
-0.0265138484538,0.0192845407873,-1.04766154289,85.999833107,,,,,-59.78,-34.84,-175.39,81.2490320206
-0.0292035676539,0.0258759986609,-1.03704702854,86.0022070408,,,,,-56.11,-32.24,-173.92,81.2493920326
-0.030687617138,0.0195219237357,-1.04180347919,86.0383369923,,,,,-54.24,-33.19,-173.41,81.2497580051
-0.0254128091037,0.0240335110575,-1.03683257103,86.0407271385,,,,,-52.99,-36.44,-173.92,81.2501220703
-0.0341367349029,0.0163004528731,-1.0367885828,86.0431210995,,,,,-52.98,-37.01,-174.68,81.250483036
-0.0335651934147,-0.00265927426517,-1.03105258942,86.0455071926,,,,,-53.36,-35.1,-175.47,81.2513830662
-0.0312761738896,-0.01419685781,-1.03542423248,86.0478920937,,,,,-54.2,-32.94,-174.9,81.251773119
-0.0310008618981,-0.00498491339386,-1.04195022583,86.0875980854,,,,,-53.13,-33.72,-174.55,81.2521340847
-0.0230415277183,-0.00194966606796,-1.0390547514,86.0902991295,,,,,-51.21,-34.54,-174.71,81.2524940968
-0.0227036066353,-0.0182624477893,-1.02078092098,86.0926730633,,,,,-48.56,-35.07,-174.91,81.2528891563
-0.0250069759786,-0.00749014504254,-1.01403903961,86.0951220989,,,,,-45.5,-34.53,-174.71,81.253827095
-0.0228603519499,0.00224110670388,-1.03006255627,86.097479105,,,,,-54.13,-33.56,-174.39,81.2542181015
-0.0198328197002,-0.000299928709865,-1.0508005619,86.1368939877,,,,,-57.56,-33.87,-174.8,81.2545790672
-0.0184570327401,0.0213918294758,-1.04729127884,86.1392681599,,,,,-56.95,-34.66,-175.69,81.2549409866
-0.0206904001534,0.0412000864744,-1.05893051624,86.1416711807,,,,,-53.29,-34.61,-175.82,81.2553031445
-0.0276899151504,0.0229509677738,-1.06118559837,86.1440851688,,,,,-47.21,-33.93,-175.73,81.2562031746
-0.033279530704,0.00201424211264,-1.04800450802,86.1464600563,,,,,-51.8,-33.73,-176.47,81.2565920353
-0.034577973187,-0.00655945111066,-1.05096423626,86.1850101948,,,,,-60.99,-34.6,-178.23,81.256953001
-0.0351115763187,-0.0123030524701,-1.05727958679,86.1873841286,,,,,-62.09,-34.98,-178.85,81.2573130131
-0.0451282635331,-0.0214829947799,-1.05957269669,86.1897881031,,,,,-59.66,-35.04,-179.0,81.2576739788
-0.0551768764853,-0.032730743289,-1.05853581429,86.1921579838,,,,,-48.85,-34.29,-178.12,81.2953081131
-0.0557162389159,-0.0458421260118,-1.06434011459,86.2285480499,,,,,-47.96,-34.32,-177.23,81.2957031727
-0.0609579533339,-0.0491043254733,-1.0793068409,86.2309560776,,,,,-53.16,-35.19,-177.47,81.2960641384
-0.0644561052322,-0.0466863289475,-1.07891309261,86.2333700657,,,,,-58.1,-36.11,-177.66,81.2964260578
-0.0765678584576,-0.0323105975986,-1.05730676651,86.2357389927,,,,,-60.22,-36.79,-176.97,81.2967870235
-0.0853902697563,-0.0136589352041,-1.04667842388,86.2381460667,,,,,-57.13,-36.31,-176.05,81.2976891994
-0.0765648335218,-0.00421765446663,-1.05116271973,86.2774641514,,,,,-51.28,-35.11,-174.57,81.2980802059
-0.0672637820244,0.00490005500615,-1.04713821411,86.2798540592,,,,,-54.84,-36.02,-175.14,81.2984411716
-0.0609761178493,0.000646302476525,-1.04112815857,86.2822291851,,,,,-65.66,-38.75,-176.77,81.2988021374
-0.0663105994463,0.00197141058743,-1.01880514622,86.2846381664,,,,,-68.99,-39.46,-177.02,81.2991631031
-0.0719330534339,0.0103200823069,-1.01064026356,86.287042141,,,,,-67.45,-38.01,-175.73,81.3000640869
-0.0593282282352,0.000522783026099,-1.00849056244,86.3274261951,,,,,-57.79,-35.25,-174.42,81.3004541397
-0.0410712808371,0.0110519919544,-1.01672613621,86.3297991753,,,,,-57.4,-36.14,-174.82,81.3008141518
-0.0352705717087,0.0217134710401,-1.00840592384,86.3321721554,,,,,-58.36,-37.61,-175.34,81.3011751175
-0.0374423414469,0.00877527333796,-0.977233409882,86.3346199989,,,,,-60.49,-39.29,-175.48,81.3015639782
-0.0376851707697,0.00771238841116,-0.974006474018,86.3711850643,,,,,-60.19,-38.41,-174.99,81.3024740219
-0.0397757291794,0.0165653396398,-0.975845694542,86.3736519814,,,,,-51.96,-33.98,-174.66,81.3028969765
-0.0415904223919,0.0307765696198,-0.994574189186,86.3760280609,,,,,-48.91,-34.19,-175.18,81.303260088
-0.0371009856462,0.0394382253289,-1.01175332069,86.3784019947,,,,,-46.43,-37.23,-175.92,81.3036210537
-0.0273633189499,0.0381864905357,-1.03015267849,86.3807761669,,,,,-47.54,-38.36,-175.76,81.3039820194
-0.0311959031969,0.0518026053905,-1.01240599155,86.4182460308,,,,,-53.75,-37.7,-174.72,81.3048841953
-0.0367041528225,0.0613337606192,-1.0072504282,86.4206030369,,,,,-60.89,-35.48,-173.99,81.305273056
-0.0341426059604,0.0375198870897,-1.00193572044,86.4230411053,,,,,-61.77,-36.39,-173.79,81.3056361675
-0.0290471538901,0.0247350726277,-0.989833235741,86.4254140854,,,,,-59.59,-37.7,-173.52,81.3059961796
-0.0298571009189,0.0249112490565,-0.977352142334,86.4277892113,,,,,-54.79,-38.73,-172.77,81.306358099
-0.0331740677357,0.025856776163,-0.969235002995,86.4676251411,,,,,-55.26,-37.93,-172.44,81.3445501328
-0.0391631871462,0.0310573782772,-0.972457528114,86.4700260162,,,,,-66.8,-35.08,-173.08,81.3449401855
-0.0461471304297,0.0245212484151,-0.993700742722,86.4724001884,,,,,-68.06,-35.46,-173.77,81.3453030586
-0.0527200475335,0.0150607842952,-1.00227200985,86.4748671055,,,,,-59.71,-36.94,-175.1,81.3456640244
-0.0554154664278,0.0243340153247,-1.01905691624,86.4772410393,,,,,-52.92,-37.01,-175.51,81.3460240364
-0.0528008192778,0.0348623245955,-1.02479219437,86.5166511536,,,,,-47.06,-35.19,-175.67,81.3469262123
-0.0545377507806,0.019106676802,-1.02387213707,86.5190560818,,,,,-56.93,-33.9,-175.87,81.347315073
-0.0585294812918,0.0206277389079,-1.00813877583,86.521433115,,,,,-67.44,-35.01,-176.85,81.3476769924
-0.0653251707554,0.0375016629696,-1.00756299496,86.5238540173,,,,,-67.29,-35.66,-177.23,81.3480370045
-0.0609152019024,0.0162075031549,-0.981847882271,86.5611450672,,,,,-58.69,-34.81,-176.45,81.3483991623
-0.0581695586443,-0.000117151066661,-0.978125452995,86.5635621548,,,,,-54.88,-33.56,-175.31,81.3493001461
-0.0741361528635,0.00276210531592,-0.987505197525,86.5659689903,,,,,-62.97,-33.29,-173.51,81.3497240543
-0.085217051208,0.0162040796131,-1.00253796577,86.5683431625,,,,,-68.91,-34.84,-174.41,81.3500871658
-0.0799954906106,0.0201929677278,-1.01821827888,86.5707161427,,,,,-74.1,-36.49,-176.48,81.3504481316
-0.0739664882421,0.0170135963708,-1.02684533596,86.6083810329,,,,,-72.35,-35.55,-176.45,81.3508090973
-0.066176533699,0.0242736730725,-1.01905965805,86.6107561588,,,,,-64.75,-31.28,-174.27,81.3516871929
-0.0692658498883,0.0199382696301,-0.988694548607,86.6131601334,,,,,-61.58,-29.95,-173.41,81.3520770073
-0.0795380175114,0.0176047962159,-0.985021233559,86.6155650616,,,,,-67.2,-33.2,-176.27,81.3524370193
-0.0812966376543,0.0207111332566,-0.986044287682,86.6179389954,,,,,-70.82,-34.43,-177.8,81.3528311253
-0.0738170966506,0.0174913238734,-0.989456176758,86.6571631432,,,,,-72.85,-32.48,-177.63,81.3531990051
-0.0598519295454,0.0111786853522,-0.991866230965,86.6595411301,,,,,-70.08,-29.76,-176.09,81.354101181
-0.0565274208784,0.00851577334106,-0.999267697334,86.6622710228,,,,,-57.0,-25.93,-174.05,81.3544900417
-0.0619837120175,0.0208913479,-0.976531267166,86.6646821499,,,,,-56.4,-27.22,-175.06,81.3548521996
-0.0620826929808,0.0206314194947,-0.970974981785,86.6670560837,,,,,-61.71,-29.62,-176.66,81.3552131653
-0.0663261264563,0.00507014803588,-0.992832422256,86.706838131,,,,,-65.08,-29.29,-176.13,81.355574131
-0.0685657560825,-0.00439567118883,-1.0090405941,86.7093570232,,,,,-66.68,-26.28,-173.36,81.3901700974
-0.0660179555416,-0.0011681150645,-1.0273026228,86.7117791176,,,,,-61.85,-24.6,-172.34,81.3905591965
-0.0667758733034,0.00949874892831,-1.02463853359,86.7142071724,,,,,-59.31,-25.54,-174.04,81.3909211159
-0.0592676848173,0.0101990643889,-1.01412177086,86.7511661053,,,,,-60.15,-25.89,-174.84,81.3912820816
-0.0489662289619,0.0336941331625,-1.00394821167,86.7535791397,,,,,-61.98,-25.74,-175.0,81.3916430473
-0.0506407245994,0.0548617243767,-0.999173641205,86.7559540272,,,,,-67.67,-24.3,-173.33,81.3925430775
-0.0524785071611,0.0483367517591,-0.981446146965,86.7583940029,,,,,-67.82,-24.05,-173.87,81.3929691315
-0.0553062781692,0.0482837855816,-0.97033393383,86.7607700825,,,,,-65.97,-23.79,-174.71,81.3933320045
-0.0595882236958,0.0630569458008,-0.978077769279,86.7973752022,,,,,-62.95,-23.18,-175.48,81.3936941624
-0.053814984858,0.0522509366274,-0.994016170502,86.7997870445,,,,,-56.58,-21.79,-175.98,81.3940560818
-0.0515656918287,0.0252784211189,-0.985873699188,86.8021621704,,,,,-57.89,-21.7,-175.98,81.3949570656
-0.0575364083052,0.0212615262717,-0.979261994362,86.8045752048,,,,,-65.28,-22.09,-177.64,81.3953461647
-0.066143207252,0.0337429121137,-0.973607242107,86.8069841862,,,,,-66.12,-20.88,-179.74,81.3957080841
-0.0618997365236,0.0317069962621,-0.988926410675,86.8478500843,,,,,-62.15,-19.95,-180.11,81.3960721493
-0.0605516955256,0.022011289373,-0.998276472092,86.850233078,,,,,-57.06,-19.32,-179.83,81.3964350224
-0.0647979080677,0.0228714700788,-1.00364673138,86.8526082039,,,,,-52.9,-19.91,-178.45,81.3973340988
-0.0692352205515,0.0251017678529,-1.02068173885,86.8550601006,,,,,-68.45,-21.72,-179.24,81.3977570534
-0.0708995461464,0.0381735041738,-1.01750457287,86.8574340343,,,,,-71.96,-21.3,-179.84,81.3981192112
-0.0594792217016,0.0427825823426,-1.0107344389,86.896281004,,,,,-71.72,-20.49,-179.93,81.3984830379
-0.0566833615303,0.0463974103332,-1.01079666615,86.8986570835,,,,,-63.1,-19.09,-178.09,81.3988440037
-0.0589630678296,0.0468510687351,-1.01027476788,86.9010322094,,,,,-59.02,-19.05,-176.73,81.3997430801
-0.0642329603434,0.0559056699276,-0.98644220829,86.903470993,,,,,-64.89,-20.41,-175.34,81.4001331329
-0.0756281092763,0.0513234362006,-0.981123566628,86.9398481846,,,,,-69.55,-20.56,-175.82,81.4363341331
-0.0807285383344,0.035483494401,-0.98283135891,86.9422621727,,,,,-72.2,-19.5,-176.37,81.436699152
-0.080658107996,0.0183300357312,-1.00703930855,86.944674015,,,,,-69.47,-18.46,-176.0,81.4370620251
-0.0764534249902,0.0079952608794,-1.02728962898,86.9470460415,,,,,-62.17,-16.67,-174.63,81.4379961491
-0.0720312967896,0.00938320718706,-1.06167292595,86.9494371414,,,,,-63.44,-17.04,-174.42,81.4383850098
-0.0708546936512,0.025246726349,-1.08032023907,86.9877481461,,,,,-73.28,-18.92,-175.69,81.4387471676
-0.0820948258042,0.0404318720102,-1.08305096626,86.9901540279,,,,,-77.51,-19.32,-176.34,81.4391081333
-0.0733671635389,0.0339855253696,-1.10977649689,86.9925100803,,,,,-78.84,-18.02,-176.41,81.4394700527
-0.0626018941402,0.0120979752392,-1.12740767002,86.9949710369,,,,,-76.55,-16.87,-175.9,81.4403710365
-0.0630455836654,0.00901575386524,-1.15477800369,86.9973461628,,,,,-71.23,-17.66,-175.17,81.4407610893
-0.0728434473276,0.0302218031138,-1.15645194054,87.0370080471,,,,,-72.32,-19.27,-175.49,81.4411220551
-0.0845306664705,0.0281982999295,-1.13729667664,87.0394141674,,,,,-75.3,-20.87,-176.19,81.4414842129
-0.0734748244286,0.0160585213453,-1.09904754162,87.0417850018,,,,,-75.74,-20.02,-176.18,81.4418451786
-0.0727866664529,0.0155101399869,-1.08352077007,87.0442080498,,,,,-72.73,-16.98,-175.94,81.4427421093
-0.0803419798613,0.0132869761437,-1.07176792622,87.0466201305,,,,,-66.31,-16.9,-176.56,81.443169117
-0.0789581015706,0.000609310343862,-1.06464612484,87.0868060589,,,,,-61.15,-20.09,-177.57,81.4435319901
-0.0799479335546,0.00263765268028,-1.02911198139,87.0891811848,,,,,-60.74,-21.12,-177.55,81.4438920021
-0.0813010409474,0.00943793542683,-1.00669562817,87.0915551186,,,,,-65.37,-20.04,-176.31,81.4442541599
-0.0769723802805,-0.0102412477136,-1.00357234478,87.0939970016,,,,,-69.32,-18.83,-175.62,81.4451510906
-0.0658073425293,-0.027410833165,-0.998959898949,87.1295940876,,,,,-73.22,-19.71,-175.65,81.4455699921
-0.061080686748,-0.0176865700632,-0.987242221832,87.1319692135,,,,,-70.3,-21.48,-175.76,81.4459331036
-0.0652949213982,0.00244997814298,-0.975850403309,87.1344130039,,,,,-64.86,-23.02,-174.93,81.446295023
-0.0634649842978,0.0126306731254,-0.973419368267,87.1367871761,,,,,-65.75,-22.21,-174.21,81.4466559887
-0.0686461031437,-0.0158364567906,-0.970028162003,87.1391611099,,,,,-75.74,-19.72,-173.72,81.48548913
-0.072038307786,-0.0187997128814,-0.950076401234,87.177491188,,,,,-83.48,-19.94,-175.51,81.4858970642
-0.0735384300351,-0.00745148397982,-0.945660769939,87.1798641682,,,,,-77.08,-21.6,-177.51,81.4862601757
-0.0715193226933,-0.0119256172329,-0.935686171055,87.1825881004,,,,,-70.91,-21.51,-177.95,81.4866211414
-0.0668508186936,-0.00718450732529,-0.93523055315,87.1850070953,,,,,-65.43,-19.21,-177.79,81.4869830608
-0.0658377856016,-0.00589114800096,-0.923364520073,87.1873781681,,,,,-68.52,-18.32,-177.76,81.4878840446
-0.0595454350114,-0.0219958815724,-0.928522586823,87.227022171,,,,,-83.88,-20.86,-179.34,81.4882731438
-0.0621442124248,-0.0248240213841,-0.929055094719,87.229403019,,,,,-83.44,-21.86,-179.78,81.4886341095
-0.067672662437,-0.00478356797248,-0.920696377754,87.2317950726,,,,,-73.85,-20.66,-178.87,81.4889950752
-0.0681887865067,-0.00255155097693,-0.926925241947,87.2342050076,,,,,-68.9,-19.02,-177.61,81.489356041
-0.0603835806251,-0.0119261872023,-0.929411888123,87.2365820408,,,,,-68.52,-17.95,-175.42,81.4902551174
-0.0637141242623,-0.0124115291983,-0.938163518906,87.2751131058,,,,,-78.53,-21.53,-176.03,81.4906430244
-0.0547536537051,-0.00128063000739,-0.938334643841,87.2775042057,,,,,-83.87,-23.3,-178.09,81.4910051823
-0.0481984615326,-0.0334057658911,-0.933577418327,87.2798981667,,,,,-82.2,-21.87,-178.32,81.4913651943
-0.0430572777987,-0.0417364016175,-0.928729236126,87.2822711468,,,,,-78.55,-19.32,-177.73,81.49172616
-0.0496275573969,-0.006288388744,-0.924125492573,87.3197441101,,,,,-72.22,-15.5,-175.94,81.4926261902
-0.0572420805693,-0.015809526667,-0.944615900517,87.3221240044,,,,,-79.0,-20.35,-178.88,81.4931130409
-0.0634832754731,-0.0350630283356,-0.951577842236,87.3245410919,,,,,-82.75,-21.8,-180.45,81.4934961796
-0.0434824302793,-0.0277660284191,-0.944182634354,87.3269481659,,,,,-84.83,-21.81,-180.95,81.4938750267
-0.0403567776084,-0.0280196014792,-0.952067553997,87.329321146,,,,,-82.05,-18.33,-177.95,81.4942371845
-0.0431790798903,-0.0366048514843,-0.967988371849,87.3677031994,,,,,-77.86,-16.82,-175.66,81.4951381683
-0.0597352162004,-0.0414004549384,-0.974799573421,87.3700721264,,,,,-68.74,-19.43,-174.49,81.495527029
-0.0527393370867,-0.0450757071376,-0.975863933563,87.3724460602,,,,,-70.88,-21.7,-176.65,81.4958879948
-0.0451426655054,-0.0540374219418,-0.986168980598,87.3748941422,,,,,-72.98,-21.16,-176.68,81.4962480068
-0.0587724670768,-0.0541418045759,-0.998536467552,87.3772680759,,,,,-74.49,-19.85,-175.93,81.496609211
-0.0694744884968,-0.0558644458652,-1.0062867403,87.4169120789,,,,,-73.11,-17.35,-174.56,81.5333161354
-0.0754218995571,-0.0660116374493,-1.01516699791,87.4192860126,,,,,-66.8,-17.29,-177.54,81.533755064
-0.0910825356841,-0.0756564512849,-1.00724685192,87.4216921329,,,,,-66.65,-17.16,-178.64,81.5341191292
-0.0884764119983,-0.0998021811247,-1.00696611404,87.4241051674,,,,,-68.15,-16.66,-179.01,81.5344810486
-0.0923217311502,-0.106043547392,-0.999979496002,87.4264791012,,,,,-74.9,-15.64,-177.96,81.5348420143
-0.104718461633,-0.0820357427001,-1.00194776058,87.4650790691,,,,,-78.47,-15.65,-177.31,81.5357470512
-0.108891218901,-0.0942903906107,-1.02239561081,87.4674551487,,,,,-78.8,-17.08,-177.0,81.5361361504
-0.10444444418,-0.110859498382,-1.03312373161,87.46986413,,,,,-75.19,-17.17,-176.95,81.5364961624
-0.109565407038,-0.100439399481,-1.03300905228,87.4722402096,,,,,-68.51,-16.86,-176.47,81.5368561745
-0.0936090797186,-0.105156973004,-1.04449880123,87.5086970329,,,,,-68.49,-16.97,-176.37,81.5372180939
-0.0841027498245,-0.110627226532,-1.04841685295,87.51110816,,,,,-75.22,-17.94,-177.4,81.5381200314
-0.086307130754,-0.0958115234971,-1.05118882656,87.5135641098,,,,,-78.91,-17.93,-180.41,81.5385091305
-0.0890760496259,-0.102853477001,-1.06357729435,87.515941143,,,,,-74.5,-17.22,-180.83,81.5388700962
-0.0960167646408,-0.0934044793248,-1.05885994434,87.5183479786,,,,,-69.14,-16.56,-180.83,81.5392310619
-0.0944929048419,-0.0886186286807,-1.06175231934,87.5574040413,,,,,-64.47,-16.45,-180.28,81.5395929813
-0.0930486321449,-0.110281869769,-1.06806397438,87.5597970486,,,,,-67.46,-16.92,-180.16,81.5404961109
-0.090440787375,-0.116781316698,-1.07893741131,87.5621759892,,,,,-81.39,-17.64,-180.64,81.5408861637
-0.0835285410285,-0.112483695149,-1.06946623325,87.5646080971,,,,,-80.85,-17.13,-180.37,81.5412480831
-0.0814902931452,-0.117928467691,-1.06741607189,87.5670220852,,,,,-72.58,-15.88,-178.19,81.5416400433
-0.0798722729087,-0.121052436531,-1.08128511906,87.6076431274,,,,,-69.4,-15.52,-176.76,81.5420041084
-0.0796502307057,-0.11693572253,-1.08775949478,87.6100080013,,,,,-73.21,-15.71,-174.98,81.5429310799
-0.0776975750923,-0.108236573637,-1.10578322411,87.6123821735,,,,,-84.84,-16.82,-175.38,81.5433211327
-0.0752730444074,-0.107561826706,-1.11465227604,87.6148400307,,,,,-89.24,-17.29,-175.79,81.5436830521
-0.0703444927931,-0.123318575323,-1.13401293755,87.6172060966,,,,,-87.5,-17.01,-175.27,81.5440430641
-0.0566238611937,-0.136745974422,-1.1432955265,87.6549191475,,,,,-82.65,-15.66,-173.7,81.5779151917
-0.0526301935315,-0.123439766467,-1.15294611454,87.6572971344,,,,,-82.51,-15.21,-173.37,81.578826189
-0.0610386058688,-0.0883593410254,-1.15753805637,87.6596741676,,,,,-90.77,-16.97,-174.84,81.5792160034
-0.0608780235052,-0.0816811025143,-1.16802489758,87.662083149,,,,,-92.57,-17.83,-175.48,81.5795781612
-0.0470473915339,-0.104768238962,-1.18242323399,87.6982111931,,,,,-91.01,-17.82,-175.92,81.579939127
-0.0470273643732,-0.123943798244,-1.19749438763,87.7005801201,,,,,-88.63,-16.88,-176.01,81.5803010464
-0.068379893899,-0.109441176057,-1.18595647812,87.7030241489,,,,,-84.31,-15.3,-176.4,81.5812010765
-0.0653899237514,-0.100431859493,-1.17441356182,87.7053999901,,,,,-82.56,-16.44,-176.68,81.58162117
-0.0505102053285,-0.095337100327,-1.17034196854,87.7077760696,,,,,-83.1,-18.66,-176.37,81.5819840431
-0.0365925505757,-0.095106638968,-1.17696774006,87.748032093,,,,,-84.25,-18.98,-176.18,81.5823471546
-0.019456166774,-0.0829129368067,-1.18038880825,87.7504410744,,,,,-87.14,-18.23,-176.2,81.5827081203
-0.0158604457974,-0.0718499794602,-1.18485426903,87.7528550625,,,,,-87.77,-17.94,-176.26,81.5836591721
-0.0163572877645,-0.0936218798161,-1.16701173782,87.755240202,,,,,-81.45,-20.69,-176.25,81.5840661526
-0.0170086175203,-0.11631911248,-1.14455151558,87.7576491833,,,,,-79.02,-21.65,-176.49,81.5844271183
-0.0229987315834,-0.119916088879,-1.15525853634,87.7966530323,,,,,-80.55,-21.53,-177.68,81.5847890377
-0.00712970085442,-0.10627578944,-1.17070066929,87.7990581989,,,,,-84.48,-20.76,-178.39,81.5851500034
0.00803928263485,-0.0893616005778,-1.14784669876,87.801429987,,,,,-90.32,-20.1,-179.27,81.5860521793
0.00651369336993,-0.0701699852943,-1.11528468132,87.8038420677,,,,,-84.55,-21.75,-179.41,81.58644104
0.00438036210835,-0.0533627197146,-1.09435319901,87.8410360813,,,,,-74.16,-22.66,-179.84,81.5868010521
0.0122129833326,-0.0650619342923,-1.08138859272,87.843460083,,,,,-73.0,-22.09,-180.03,81.5871632099
0.0229648388922,-0.0698107257485,-1.06076085567,87.8458600044,,,,,-75.7,-21.17,-180.04,81.5875229836
0.0279675256461,-0.0735671520233,-1.04694628716,87.848236084,,,,,-85.92,-20.77,-179.31,81.5884270668
0.0269686933607,-0.0961553156376,-1.03653609753,87.8506090641,,,,,-82.15,-23.33,-177.5,81.6266441345
0.0269811376929,-0.0816543772817,-1.02067184448,87.8878481388,,,,,-77.0,-23.19,-176.93,81.6270110607
0.0255506429821,-0.101388595998,-1.01788604259,87.8902239799,,,,,-74.2,-21.06,-175.54,81.6273729801
0.0274653173983,-0.0945474207401,-1.02516436577,87.8925971985,,,,,-78.28,-20.45,-174.75,81.6277341843
0.0296525824815,-0.0772655978799,-1.02868974209,87.895042181,,,,,-92.77,-23.89,-173.75,81.6286771297
0.023664586246,-0.0697394683957,-1.04878997803,87.8974170685,,,,,-92.72,-24.72,-173.94,81.6290230751
0.0149409882724,-0.0701946541667,-1.07852804661,87.9372580051,,,,,-87.51,-22.37,-174.31,81.6293971539
0.0123585602269,-0.0727268159389,-1.05835580826,87.9396350384,,,,,-85.3,-20.07,-174.38,81.6297781467
0.00651912204921,-0.0678969845176,-1.05994701385,87.9420421124,,,,,-84.83,-18.37,-174.47,81.6301410198
0.000439277035184,-0.0640178918839,-1.088570714,87.9444591999,,,,,-88.66,-19.64,-175.45,81.6310420036
-0.0109594278038,-0.0566145256162,-1.09969508648,87.9468359947,,,,,-93.57,-22.98,-178.23,81.6314311028
-0.0155372880399,-0.0615302696824,-1.11204767227,87.9869441986,,,,,-92.55,-21.17,-178.67,81.6317920685
-0.00539385899901,-0.0581666007638,-1.12073135376,87.9893171787,,,,,-90.29,-18.36,-178.79,81.6321530342
-0.00308500044048,-0.0481384545565,-1.12513685226,87.9917180538,,,,,-84.21,-15.03,-178.78,81.632515192
-0.0179697088897,-0.071249216795,-1.13054811954,87.9944469929,,,,,-82.11,-16.03,-178.99,81.6334459782
-0.0218426845968,-0.0865213498473,-1.14800214767,88.0312321186,,,,,-83.09,-21.51,-180.11,81.6338369846
-0.00307716615498,-0.0688720420003,-1.15014576912,88.0336492062,,,,,-85.72,-18.8,-179.69,81.6341991425
-0.00267412140965,-0.0764701887965,-1.13712573051,88.0360271931,,,,,-85.57,-16.67,-179.19,81.6345610619
-0.00767411291599,-0.0771723762155,-1.14370369911,88.038462162,,,,,-84.08,-15.5,-178.72,81.6349210739
-0.0114942826331,-0.0792387500405,-1.13051879406,88.0408360958,,,,,-75.33,-19.48,-178.52,81.6358220577
-0.00224411673844,-0.0781627222896,-1.1256994009,88.0774781704,,,,,-73.82,-20.72,-178.67,81.6362121105
0.0107105709612,-0.0814367383718,-1.14208471775,88.0798711777,,,,,-75.79,-19.64,-178.57,81.636603117
0.0173039771616,-0.0871206000447,-1.14043283463,88.0822460651,,,,,-79.01,-18.12,-178.49,81.6369671822
0.0174591373652,-0.091362901032,-1.15052247047,88.0846590996,,,,,-84.39,-16.77,-178.7,81.6373271942
0.0164898950607,-0.0956258624792,-1.15595817566,88.0870580673,,,,,-83.85,-17.57,-178.93,81.6751580238
0.0330151431262,-0.0771941244602,-1.15426015854,88.1274080276,,,,,-76.25,-19.91,-179.06,81.6755070686
0.0250779390335,-0.0752345845103,-1.15500509739,88.1297831535,,,,,-72.24,-20.35,-178.85,81.675868988
0.00264740921557,-0.0893878340721,-1.17144858837,88.1321561337,,,,,-70.79,-20.13,-178.57,81.6762301922
0.0136215798557,-0.106126643717,-1.1669523716,88.1346070766,,,,,-78.26,-19.3,-178.65,81.6765921116
0.021101238206,-0.105684556067,-1.15154850483,88.1369831562,,,,,-84.22,-19.51,-179.17,81.6769521236
0.0169110149145,-0.0864652767777,-1.14223754406,88.1763961315,,,,,-88.08,-21.36,-180.09,81.6778860092
-0.00896551460028,-0.0897914990783,-1.13939869404,88.1787731647,,,,,-77.41,-22.7,-179.23,81.6782770157
0.0141658317298,-0.105521455407,-1.14135754108,88.1811511517,,,,,-69.74,-22.15,-177.17,81.6786391735
0.0271892137825,-0.0911787971854,-1.14105117321,88.1835951805,,,,,-72.16,-21.89,-176.54,81.6790001392
-0.00279182568192,-0.0708625540137,-1.13895463943,88.2198700905,,,,,-84.84,-23.08,-176.7,81.679361105
-0.00637366995215,-0.0819949507713,-1.16556918621,88.2222831249,,,,,-89.81,-24.26,-177.0,81.6802630424
-0.0083671361208,-0.0795688405633,-1.18090903759,88.2246990204,,,,,-85.11,-25.11,-175.8,81.6806521416
-0.0153738111258,-0.0562280938029,-1.17430973053,88.2270731926,,,,,-81.35,-24.15,-175.02,81.6810131073
-0.0112681724131,-0.0597236528993,-1.16763973236,88.2294650078,,,,,-80.15,-23.4,-174.54,81.6813750267
0.00241453014314,-0.0740338936448,-1.1664096117,88.2677509785,,,,,-83.03,-24.48,-174.96,81.6817350388
0.0166694372892,-0.0636035501957,-1.16364145279,88.2701621056,,,,,-89.88,-27.63,-176.31,81.6826369762
0.00402182713151,-0.0446264147758,-1.16691577435,88.272536993,,,,,-91.55,-27.74,-176.98,81.6830639839
-0.0088112000376,-0.0521800592542,-1.16887819767,88.2749490738,,,,,-86.85,-24.79,-177.0,81.6834261417
-0.012597296387,-0.0664539337158,-1.16996026039,88.2773241997,,,,,-83.51,-24.17,-176.96,81.6837871075
-0.00589737668633,-0.0776284858584,-1.19059860706,88.3169140816,,,,,-78.93,-26.58,-177.21,81.6841471195
-0.0116493962705,-0.0821976661682,-1.19259238243,88.3193171024,,,,,-79.13,-28.4,-177.5,81.685049057
-0.0222303159535,-0.071020282805,-1.1835039854,88.321696043,,,,,-86.44,-27.35,-178.38,81.6854541302
-0.0217561759055,-0.0754051730037,-1.1830073595,88.324105978,,,,,-87.78,-25.44,-178.55,81.6858320236
-0.0235382281244,-0.0819754004478,-1.19714379311,88.3265120983,,,,,-83.9,-24.21,-178.62,81.6861941814
-0.0228601135314,-0.074171744287,-1.18601560593,88.3664250374,,,,,-79.65,-25.46,-178.56,81.6865551472
-0.0137893222272,-0.0706947222352,-1.1724666357,88.3688020706,,,,,-73.54,-28.4,-178.47,81.7232010365
-0.0131979174912,-0.0882296860218,-1.18458223343,88.3711760044,,,,,-76.04,-27.57,-178.37,81.7235929966
-0.0296781156212,-0.0771979615092,-1.18801105022,88.3736209869,,,,,-83.52,-24.65,-178.47,81.7239542007
-0.0198265761137,-0.0630219057202,-1.1849540472,88.4095971584,,,,,-85.28,-24.06,-178.58,81.7243151665
-0.010788384825,-0.0655751004815,-1.17364239693,88.4119770527,,,,,-81.25,-24.98,-178.38,81.7246770859
-0.0172363780439,-0.0710908994079,-1.17248892784,88.414424181,,,,,-77.13,-25.73,-177.95,81.7256081104
-0.0461151972413,-0.0866369828582,-1.19633162022,88.4168012142,,,,,-75.9,-26.09,-176.21,81.7260000706
-0.0532228350639,-0.0782490074635,-1.20289647579,88.4191730022,,,,,-81.24,-26.08,-176.28,81.72636199
-0.0436169877648,-0.0689630135894,-1.18762493134,88.4574160576,,,,,-92.03,-26.83,-177.4,81.7267231941
-0.0360716730356,-0.0732288733125,-1.1795181036,88.4597890377,,,,,-93.27,-27.23,-177.81,81.7270841599
-0.0247166156769,-0.0849975645542,-1.19829714298,88.462198019,,,,,-86.43,-26.98,-177.06,81.7279860973
-0.0318749174476,-0.0828982442617,-1.20582556725,88.4646830559,,,,,-78.69,-25.79,-175.72,81.7283761501
-0.0423881113529,-0.0681337118149,-1.20069694519,88.4670569897,,,,,-83.06,-25.96,-176.55,81.7287371159
-0.0419972911477,-0.0495079010725,-1.19985198975,88.5076050758,,,,,-88.02,-26.63,-177.72,81.7290980816
-0.0405576899648,-0.0576694086194,-1.20783686638,88.5100212097,,,,,-91.88,-27.21,-178.7,81.7294580936
-0.0419877320528,-0.0718452706933,-1.20661389828,88.5124030113,,,,,-90.95,-26.47,-178.46,81.7303590775
-0.0512400865555,-0.0602600425482,-1.2048842907,88.5148341656,,,,,-76.78,-22.55,-175.84,81.7307491302
-0.0482556074858,-0.0448033809662,-1.20799160004,88.5172121525,,,,,-75.16,-22.54,-176.07,81.7311091423
-0.0448759272695,-0.065857373178,-1.21214270592,88.5551011562,,,,,-76.4,-23.59,-176.83,81.7314710617
-0.0454054921865,-0.0749290809035,-1.22392761707,88.5574932098,,,,,-83.09,-26.55,-178.07,81.7318310738
-0.0409298315644,-0.0784292966127,-1.23240983486,88.5598859787,,,,,-85.42,-27.05,-177.83,81.7327301502
-0.0531393438578,-0.0807640329003,-1.23958575726,88.5622611046,,,,,-80.61,-23.07,-174.98,81.7331461906
-0.0539016723633,-0.0842608958483,-1.22558450699,88.599656105,,,,,-74.96,-22.41,-174.48,81.7335381508
-0.0383287370205,-0.0918719172478,-1.21548104286,88.6020331383,,,,,-74.89,-23.62,-174.81,81.7339031696
-0.0328946635127,-0.0846674740314,-1.22087752819,88.6044511795,,,,,-76.95,-25.05,-175.28,81.7681930065
-0.0429653674364,-0.0657339543104,-1.21663892269,88.6068630219,,,,,-84.46,-25.31,-175.81,81.7690970898
-0.0428542047739,-0.0617987290025,-1.20293474197,88.6092400551,,,,,-87.45,-20.4,-175.72,81.7694880962
-0.0383529514074,-0.0751028284431,-1.20990848541,88.6477491856,,,,,-84.97,-20.25,-175.76,81.7698500156
-0.0419754981995,-0.0730269476771,-1.21331870556,88.6501221657,,,,,-81.86,-21.3,-175.95,81.7702109814
-0.0453649833798,-0.0634117797017,-1.20494675636,88.6524891853,,,,,-78.68,-24.06,-176.65,81.7705721855
-0.0546711087227,-0.0684048607945,-1.20144200325,88.6549441814,,,,,-79.76,-24.28,-177.02,81.7714731693
-0.0547341555357,-0.0710544884205,-1.19432628155,88.6573162079,,,,,-88.0,-21.25,-177.68,81.77186203
-0.044583953917,-0.0918577685952,-1.19049465656,88.6968719959,,,,,-88.59,-21.23,-177.77,81.7722241879
-0.052731744945,-0.0911318287253,-1.18536007404,88.699244976,,,,,-82.98,-23.28,-177.72,81.7725851536
-0.0625158846378,-0.0808694958687,-1.17774617672,88.70165205,,,,,-78.45,-24.25,-177.58,81.7729811668
-0.068735525012,-0.0793036296964,-1.17934155464,88.704061985,,,,,-73.5,-24.11,-177.07,81.7739272118
-0.0715077966452,-0.0712685957551,-1.178591609,88.7064340115,,,,,-79.6,-22.97,-177.16,81.7743170261
-0.0546050295234,-0.0623853802681,-1.16389799118,88.7450351715,,,,,-88.84,-23.88,-178.43,81.7746810913
-0.0450911521912,-0.0675283446908,-1.15564060211,88.7474031448,,,,,-90.31,-24.56,-179.12,81.775042057
-0.0541936382651,-0.0760042220354,-1.15036892891,88.749808073,,,,,-84.81,-24.27,-179.51,81.7754030228
-0.0624579191208,-0.0729705616832,-1.14528179169,88.7521841526,,,,,-80.4,-23.23,-179.27,81.7763040066
-0.0733394622803,-0.0671590715647,-1.15394032001,88.7884449959,,,,,-80.64,-22.51,-179.91,81.7766940594
-0.064656637609,-0.0667392686009,-1.168181777,88.7908711433,,,,,-85.49,-23.73,-180.75,81.7770709991
-0.06961594522,-0.0611549913883,-1.17600643635,88.7932879925,,,,,-92.14,-25.74,-181.63,81.7774441242
-0.0758145600557,-0.0613805800676,-1.18026328087,88.7956671715,,,,,-91.15,-25.47,-181.1,81.7778081894
-0.0648642629385,-0.0798989608884,-1.19244253635,88.7980761528,,,,,-81.27,-23.31,-178.83,81.7787091732
-0.0698282048106,-0.0824995264411,-1.19393730164,88.8372352123,,,,,-73.19,-22.97,-177.55,81.8161001205
-0.0678130537271,-0.0800642892718,-1.18337202072,88.8396410942,,,,,-76.92,-26.04,-177.76,81.8164651394
-0.0624019876122,-0.0790594890714,-1.1787314415,88.842012167,,,,,-81.31,-27.37,-177.8,81.8168270588
-0.0562408491969,-0.0875413864851,-1.16974890232,88.8444201946,,,,,-86.19,-26.88,-176.89,81.8171870708
-0.0454252809286,-0.0853685885668,-1.15788471699,88.8468270302,,,,,-84.57,-25.21,-176.16,81.8180902004
-0.0515633970499,-0.084429487586,-1.13250494003,88.8871090412,,,,,-72.88,-22.28,-175.41,81.8184790611
-0.0652962625027,-0.0848701372743,-1.11368787289,88.8894841671,,,,,-72.48,-23.24,-175.62,81.8188390732
-0.0684025809169,-0.0932541042566,-1.07726740837,88.8918600082,,,,,-78.19,-25.64,-176.26,81.8192021847
-0.0687729418278,-0.0978097692132,-1.07372522354,88.8943021297,,,,,-82.02,-25.68,-176.47,81.8195621967
-0.0755986571312,-0.109606675804,-1.0613745451,88.8966720104,,,,,-85.07,-23.47,-176.71,81.8204631805
-0.0817575454712,-0.109807237983,-1.05273520947,88.9348800182,,,,,-81.16,-22.28,-176.51,81.8208520412
-0.0704614818096,-0.0994051173329,-1.05344665051,88.9372580051,,,,,-76.69,-24.83,-176.23,81.821213007
-0.0733528584242,-0.090133883059,-1.04514729977,88.9396340847,,,,,-75.93,-26.46,-176.21,81.8216071129
-0.0798459649086,-0.102299816906,-1.05619728565,88.9420411587,,,,,-78.36,-27.77,-176.43,81.8219690323
-0.0797610282898,-0.108548715711,-1.03449237347,88.9781479836,,,,,-80.95,-27.35,-176.6,81.8229072094
-0.0799201056361,-0.113387815654,-0.99865758419,88.9805221558,,,,,-85.18,-25.84,-177.58,81.8232979774
-0.0771186426282,-0.116820268333,-0.973495721817,88.9829630852,,,,,-83.08,-26.02,-178.05,81.8236601353
-0.080247990787,-0.117327474058,-0.94963657856,88.9853391647,,,,,-75.0,-26.71,-178.74,81.8240220547
-0.0785362273455,-0.103712402284,-0.927637517452,88.9877140522,,,,,-71.82,-26.91,-178.73,81.8243842125
-0.0773940682411,-0.0979314148426,-0.928546845913,89.0278820992,,,,,-73.66,-26.78,-178.37,81.82528615
-0.0722978264093,-0.0989058539271,-0.961967349052,89.0302891731,,,,,-83.09,-26.27,-179.11,81.8256771564
-0.0650789290667,-0.0868477970362,-0.979717493057,89.0326640606,,,,,-86.33,-25.34,-180.56,81.8260381222
-0.0600251555443,-0.0894700810313,-0.98447227478,89.0350852013,,,,,-83.41,-24.99,-180.75,81.8263981342
-0.0687640085816,-0.0921399742365,-0.98363173008,89.0374760628,,,,,-78.87,-24.92,-180.31,81.8267591
-0.0617215782404,-0.0997399613261,-0.98468542099,89.0770721436,,,,,-73.69,-26.13,-178.48,81.8655240536
-0.0439781546593,-0.0907563567162,-0.971633791924,89.0794761181,,,,,-86.37,-28.93,-177.31,81.86591506
-0.0422953292727,-0.0824280232191,-0.948358118534,89.0818521976,,,,,-90.12,-29.18,-177.17,81.8662781715
-0.0312174651772,-0.0627524778247,-0.956823468208,89.0842671394,,,,,-90.61,-28.99,-176.64,81.8666400909
-0.0214328207076,-0.052977502346,-0.980543255806,89.1210181713,,,,,-82.35,-28.31,-174.65,81.8670020103
-0.0250180736184,-0.0696637704968,-0.994403839111,89.1234381199,,,,,-77.32,-28.18,-173.83,81.8678991795
-0.0307577643543,-0.080022059381,-1.00028204918,89.1258461475,,,,,-79.2,-29.32,-174.08,81.8682880402
-0.0219972357154,-0.0876069888473,-0.994891285896,89.1282231808,,,,,-88.97,-29.48,-174.61,81.868650198
-0.0265868529677,-0.0771875157952,-0.975174248219,89.1305990219,,,,,-91.11,-28.61,-174.4,81.86901021
-0.0373583063483,-0.0598828718066,-0.973770856857,89.167798996,,,,,-90.35,-27.05,-174.04,81.8693721294
-0.033571049571,-0.0618376359344,-0.986867904663,89.1701741219,,,,,-83.36,-23.35,-174.08,81.8703050613
-0.0153936259449,-0.0755832493305,-0.986683011055,89.1725480556,,,,,-82.08,-23.34,-175.68,81.8706951141
-0.0121076703072,-0.0816967487335,-0.957417428493,89.1749951839,,,,,-85.33,-24.57,-176.03,81.8710570335
-0.0183938480914,-0.0900863185525,-0.935902297497,89.1773681641,,,,,-88.76,-25.29,-176.1,81.8714170456
-0.00229332596064,-0.10679218173,-0.950366377831,89.2172729969,,,,,-91.48,-23.89,-175.82,81.8717801571
-0.00970613211393,-0.097305342555,-0.948564767838,89.2196421623,,,,,-90.16,-22.33,-175.68,81.8726670742
-0.0253985114396,-0.0938187167048,-0.951991081238,89.2220461369,,,,,-81.75,-22.12,-175.78,81.8730931282
-0.0261767394841,-0.125394329429,-0.952071905136,89.224460125,,,,,-79.11,-25.56,-176.68,81.8734550476
-0.02094957605,-0.13813175261,-0.950140655041,89.2268362045,,,,,-80.13,-26.29,-177.32,81.8738181591
-0.0345018059015,-0.140473380685,-0.921294927597,89.266780138,,,,,-82.38,-25.7,-177.93,81.8741781712
-0.0375459864736,-0.132473096251,-0.911221385002,89.2691559792,,,,,-86.73,-20.31,-179.21,81.8750810623
-0.034558005631,-0.118438519537,-0.95828473568,89.2715580463,,,,,-78.94,-20.45,-179.6,81.8754711151
-0.0376663580537,-0.136545568705,-0.988812804222,89.2739679813,,,,,-73.34,-21.81,-179.61,81.8758311272
-0.0324479788542,-0.144815430045,-1.00325512886,89.3112051487,,,,,-69.23,-23.16,-179.43,81.8761911392
-0.0159840881824,-0.124556533992,-0.990477323532,89.3136160374,,,,,-70.55,-23.58,-178.69,81.8765530586
-0.0444886684418,-0.141233235598,-0.9701410532,89.3159911633,,,,,-75.24,-22.53,-178.61,81.9130880833
-0.0577192381024,-0.142760023475,-0.964802622795,89.318431139,,,,,-82.81,-20.03,-179.37,81.9134390354
-0.029321283102,-0.131473347545,-0.962214589119,89.3208031654,,,,,-82.21,-19.75,-179.83,81.9137861729
-0.0274998359382,-0.126487180591,-0.957219660282,89.3585891724,,,,,-78.52,-20.36,-179.93,81.9141480923
-0.0283753983676,-0.129367306828,-0.977466106415,89.3609650135,,,,,-69.94,-22.71,-178.79,81.914509058
-0.00199458375573,-0.147050365806,-1.00745797157,89.3633730412,,,,,-69.46,-23.54,-177.97,81.9148700237
-0.00149851094466,-0.144576445222,-1.02097642422,89.3657791615,,,,,-78.75,-23.57,-177.15,81.9157710075
-0.0149554274976,-0.134495720267,-1.0284409523,89.3681550026,,,,,-88.38,-22.96,-177.48,81.9161610603
-0.0134731419384,-0.123292885721,-1.02605009079,89.4077441692,,,,,-84.63,-23.3,-176.79,81.9165229797
-0.0111756958067,-0.122889839113,-1.03203892708,89.4101212025,,,,,-79.29,-23.55,-176.0,81.9168851376
-0.00918892025948,-0.112276285887,-1.02789247036,89.4124960899,,,,,-73.05,-23.03,-174.89,81.9172461033
-0.00792913511395,-0.0921397581697,-1.02482914925,89.4149382114,,,,,-75.11,-22.63,-174.88,81.918181181
0.00182243075687,-0.100843265653,-1.04887568951,89.4173099995,,,,,-88.64,-22.92,-175.84,81.9185740948
0.00879172701389,-0.113549150527,-1.07446074486,89.4563331604,,,,,-88.92,-23.15,-175.89,81.9189350605
0.0145466849208,-0.108811423182,-1.09024500847,89.4587111473,,,,,-82.09,-21.71,-175.7,81.9192969799
0.00748499110341,-0.096804857254,-1.09849452972,89.4610891342,,,,,-78.47,-20.26,-175.85,81.9196581841
0.00112803850789,-0.103935420513,-1.10430347919,89.4635331631,,,,,-78.63,-18.82,-176.42,81.9205591679
0.00530293211341,-0.108652509749,-1.13811099529,89.4997851849,,,,,-85.43,-21.29,-176.89,81.9209501743
0.0048476792872,-0.104619733989,-1.15014445782,89.5021951199,,,,,-87.84,-23.22,-176.86,81.9213120937
0.0078980512917,-0.108191564679,-1.14809250832,89.5046460629,,,,,-86.49,-22.58,-176.67,81.9216740131
0.017555963248,-0.102911040187,-1.13803553581,89.5070199966,,,,,-83.01,-19.64,-176.02,81.9220340252
0.0247710105032,-0.0803778246045,-1.11413693428,89.5094091892,,,,,-82.02,-19.19,-175.63,81.9229621887
0.0250969175249,-0.0833420902491,-1.09302186966,89.5479910374,,,,,-80.22,-24.12,-175.47,81.9233531952
0.0225859470665,-0.0959267318249,-1.09700810909,89.5503981113,,,,,-79.87,-25.26,-175.88,81.9237141609
0.0265408605337,-0.0969560965896,-1.08681583405,89.5527729988,,,,,-81.53,-23.44,-176.55,81.9240760803
0.0293051358312,-0.0848127529025,-1.06706416607,89.5553030968,,,,,-83.08,-21.5,-176.66,81.9579470158
0.0257331933826,-0.0668167918921,-1.04913032055,89.5577301979,,,,,-82.02,-20.43,-176.53,81.9588551521
0.0250499695539,-0.0778060629964,-1.0409733057,89.5970079899,,,,,-73.22,-24.26,-176.3,81.9592440128
0.0415474995971,-0.0889851227403,-1.00405573845,89.5994150639,,,,,-67.79,-27.28,-175.81,81.9596061707
0.0421811491251,-0.0946864485741,-0.997465729713,89.6017889977,,,,,-69.93,-26.81,-175.5,81.9599671364
0.0447435453534,-0.0827529653907,-1.00756847858,89.6042101383,,,,,-74.68,-25.41,-175.35,81.9603300095
0.0571605265141,-0.0749091431499,-0.989602446556,89.6066172123,,,,,-82.42,-22.8,-175.8,81.9612321854
0.0386489406228,-0.103841096163,-0.98089659214,89.6468901634,,,,,-72.12,-25.21,-176.22,81.9616231918
0.0529125332832,-0.0917023941875,-0.984776496887,89.6492640972,,,,,-68.83,-26.12,-175.76,81.9619851112
0.0624603554606,-0.0760056450963,-0.979129314423,89.6516420841,,,,,-74.4,-25.59,-174.91,81.962346077
0.043379612267,-0.0817421078682,-0.967878878117,89.6540930271,,,,,-81.82,-24.57,-175.02,81.9627070427
0.0483877956867,-0.0705963149667,-0.965084969997,89.6895401478,,,,,-92.36,-23.65,-176.24,81.9636440277
0.043522965163,-0.0545470044017,-0.986529350281,89.691917181,,,,,-87.31,-25.04,-176.74,81.9640340805
0.0299680735916,-0.0574556589127,-1.0173842907,89.694368124,,,,,-77.1,-25.72,-175.81,81.9643959999
0.0327193848789,-0.0517103895545,-1.03423345089,89.6967391968,,,,,-76.03,-25.13,-175.36,81.9647572041
0.0233322884887,-0.0353543162346,-1.04302108288,89.6991109848,,,,,-78.75,-24.46,-175.22,81.9651200771
0.0147877987474,-0.0408998280764,-1.06653857231,89.7375121117,,,,,-88.78,-24.48,-176.0,81.9660551548
0.0241219531745,-0.0306098815054,-1.07568156719,89.7398910522,,,,,-85.84,-26.76,-176.81,81.9664452076
0.0249121170491,-0.0230918023735,-1.07864642143,89.7423021793,,,,,-80.45,-26.2,-176.49,81.966807127
0.0246327072382,-0.0375232100487,-1.08561944962,89.7447121143,,,,,-76.05,-24.95,-176.09,81.9671671391
0.0319668650627,-0.0362234115601,-1.09813964367,89.7470870018,,,,,-76.07,-23.36,-175.38,81.9675281048
0.038855932653,-0.0358619689941,-1.09303629398,89.7873680592,,,,,-79.81,-24.08,-175.33,81.968432188
0.0324803479016,-0.0333716347814,-1.09159100056,89.7897582054,,,,,-86.36,-27.98,-176.06,82.0067090988
0.0239734109491,-0.0240218471736,-1.10624945164,89.7921350002,,,,,-84.83,-27.46,-176.1,82.007073164
0.0329797081649,-0.0315851643682,-1.12150287628,89.7945501804,,,,,-80.71,-24.35,-175.43,82.0074350834
0.0402661263943,-0.0431923270226,-1.12585771084,89.7969281673,,,,,-79.82,-23.6,-174.91,82.0077970028
0.0343889817595,-0.0538535788655,-1.12232744694,89.8350679874,,,,,-79.83,-25.76,-174.6,82.0086870193
0.0315800458193,-0.0586815997958,-1.12395036221,89.837460041,,,,,-80.1,-27.24,-176.05,82.0090770721
0.0243706349283,-0.0661012902856,-1.1122341156,89.8398489952,,,,,-80.99,-25.33,-176.31,82.0094380379
0.0198828503489,-0.0777338668704,-1.09548044205,89.8422269821,,,,,-82.14,-23.1,-176.37,82.0098011494
0.0436328276992,-0.0683796107769,-1.08634901047,89.8796432018,,,,,-81.4,-21.67,-176.23,82.0101630688
0.0495886616409,-0.0752920284867,-1.09394204617,89.8820199966,,,,,-78.28,-22.89,-176.26,82.0110611916
0.0521095283329,-0.0572668388486,-1.13206195831,89.8844301701,,,,,-69.03,-26.5,-176.1,82.0114510059
0.0616504773498,-0.0330651476979,-1.16115605831,89.8868350983,,,,,-70.91,-25.57,-175.78,82.0118122101
0.0425783544779,-0.0725858435035,-1.15132844448,89.8892111778,,,,,-80.31,-22.33,-175.82,82.01217103
0.0508708506823,-0.0957240611315,-1.10964179039,89.9277570248,,,,,-83.29,-21.44,-176.37,82.0125331879
0.0607672184706,-0.0921801254153,-1.09393286705,89.930131197,,,,,-78.64,-22.39,-177.65,82.0134840012
0.0453295633197,-0.0658932849765,-1.13549900055,89.932502985,,,,,-69.27,-23.88,-177.16,82.0138909817
0.0397147238255,-0.0727984830737,-1.17428708076,89.9350180626,,,,,-72.76,-22.69,-175.79,82.0142819881
0.0454571768641,-0.0694222822785,-1.17567789555,89.9374191761,,,,,-79.55,-21.47,-175.78,82.0146620274
0.0559473708272,-0.0228971336037,-1.16583204269,89.9768521786,,,,,-90.6,-20.26,-177.36,82.0150251389
0.0388886891305,-0.0339519679546,-1.17141544819,89.9792280197,,,,,-90.66,-20.67,-178.12,82.015925169
0.0242861416191,-0.0555270388722,-1.17738616467,89.9816331863,,,,,-77.01,-22.34,-176.69,82.0163161755
0.0345142185688,-0.0511051863432,-1.17491340637,89.9840531349,,,,,-75.63,-22.07,-175.73,82.0166771412
0.0251085180789,-0.0511539131403,-1.19386196136,89.9864339828,,,,,-82.58,-21.54,-175.37,82.0170381069
0.0155964754522,-0.055758588016,-1.19064056873,90.0250480175,,,,,-87.54,-21.93,-176.01,82.0173990726
0.0238195247948,-0.0584451034665,-1.18800508976,90.0274250507,,,,,-89.9,-23.96,-177.2,82.0549690723
0.0354757755995,-0.0585917904973,-1.1871008873,90.0298340321,,,,,-82.17,-24.21,-176.59,82.0553610325
0.0303028561175,-0.065471611917,-1.19505465031,90.0322101116,,,,,-76.57,-22.17,-175.45,82.0557210445
0.0204033162445,-0.0598782375455,-1.21040070057,90.0686180592,,,,,-77.3,-21.64,-175.25,82.0560832024
0.0151579435915,-0.0495549216866,-1.20379400253,90.0710270405,,,,,-82.1,-23.6,-175.79,82.0564441681
0.0155312027782,-0.0454059392214,-1.19835209846,90.0734360218,,,,,-83.59,-25.24,-176.09,82.0573461056
0.0134424418211,-0.0445922017097,-1.2260620594,90.0758111477,,,,,-82.17,-24.95,-175.36,82.057737112
0.014316694811,-0.0264756623656,-1.22796928883,90.0782191753,,,,,-81.43,-23.48,-174.79,82.0580980778
0.0246662274003,-0.0120883639902,-1.20613503456,90.1182770729,,,,,-79.76,-23.09,-174.19,82.0584571362
0.019011804834,-0.0386019945145,-1.2127726078,90.1206490993,,,,,-78.13,-24.68,-174.38,82.0588190556
0.00968265719712,-0.0514408573508,-1.22009050846,90.1230549812,,,,,-74.86,-27.95,-175.24,82.0597171783
0.0149013251066,-0.0369563177228,-1.21419942379,90.125451088,,,,,-77.01,-26.99,-175.65,82.060106039
0.0126111097634,-0.0315406769514,-1.20222210884,90.1278409958,,,,,-82.47,-23.29,-176.24,82.0604660511
0.00843306444585,-0.0415108576417,-1.2299696207,90.1675400734,,,,,-82.55,-22.54,-176.8,82.0608270168
0.0124893616885,-0.0520116463304,-1.2443240881,90.169916153,,,,,-74.55,-24.25,-177.99,82.0611891747
0.0153771620244,-0.0606962889433,-1.24613344669,90.1722881794,,,,,-69.59,-25.75,-178.03,82.0621290207
0.0138243734837,-0.046601742506,-1.24829101562,90.1747310162,,,,,-73.89,-25.4,-176.4,82.0625181198
0.0125810112804,-0.0402637273073,-1.24165821075,90.1770989895,,,,,-80.49,-23.98,-176.66,82.0629160404
0.00968919508159,-0.0470175892115,-1.23266375065,90.2148749828,,,,,-86.95,-22.28,-178.95,82.0632801056
-0.00083121273201,-0.0484846159816,-1.23407447338,90.2172482014,,,,,-84.1,-22.68,-179.98,82.063642025
-0.0133161395788,-0.0448626950383,-1.25226378441,90.2196221352,,,,,-73.68,-24.44,-179.37,82.0645310879
-0.018053535372,-0.0536990463734,-1.25753939152,90.2220270634,,,,,-73.67,-24.83,-176.62,82.0649211407
-0.0187645405531,-0.0578841269016,-1.25176465511,90.2581951618,,,,,-86.42,-23.89,-176.21,82.0652821064
-0.00901683233678,-0.045980989933,-1.24570512772,90.2605700493,,,,,-91.81,-23.75,-177.11,82.0656440258
-0.008928662166,-0.0393685996532,-1.23813033104,90.2630131245,,,,,-93.64,-24.03,-177.99,82.0660040379
-0.0226835869253,-0.0321273580194,-1.22223591805,90.265392065,,,,,-86.63,-24.92,-177.77,82.1018180847
-0.0318395793438,-0.0409883856773,-1.20530509949,90.2677681446,,,,,-77.83,-24.03,-174.61,82.1022090912
-0.0271731577814,-0.04341802001,-1.19843375683,90.3078560829,,,,,-80.8,-23.98,-174.48,82.1025700569
-0.0143106691539,-0.0298557188362,-1.1756182909,90.3102622032,,,,,-85.5,-24.49,-174.89,82.1029660702
-0.0197340585291,-0.029883639887,-1.14786350727,90.3126370907,,,,,-91.56,-26.28,-175.94,82.1033291817
-0.0319551452994,-0.0330957770348,-1.13627719879,90.3150451183,,,,,-90.57,-26.37,-175.94,82.1042320728
-0.0372550860047,-0.033227019012,-1.12959051132,90.3174331188,,,,,-78.6,-22.22,-175.11,82.104621172
-0.0333354845643,-0.0275251101702,-1.11454129219,90.3580241203,,,,,-77.62,-22.14,-175.64,82.1049830914
-0.0317892953753,-0.0231177341193,-1.0832362175,90.3603971004,,,,,-80.23,-23.78,-176.21,82.1053440571
-0.0313437581062,-0.0165956132114,-1.04063296318,90.3627700806,,,,,-83.4,-25.43,-176.65,82.1057071686
-0.0344018116593,-0.00535502005368,-1.01006305218,90.3651790619,,,,,-86.76,-25.45,-176.75,82.1066091061
-0.0409394204617,0.000344544649124,-0.997343420982,90.4009821415,,,,,-80.57,-20.66,-175.81,82.1069991589
-0.0372036248446,0.000163150951266,-1.01599311829,90.4033920765,,,,,-77.53,-21.07,-175.8,82.1073601246
-0.0360206514597,-0.00438578426838,-1.01892089844,90.4058001041,,,,,-75.25,-22.65,-176.06,82.1077210903
-0.0370509400964,0.00382614322007,-1.00012755394,90.4081740379,,,,,-74.16,-25.51,-176.96,82.1080830097
-0.03327485919,-0.00363083463162,-1.00202047825,90.4105410576,,,,,-75.43,-25.2,-177.28,82.1089839935
-0.0342531874776,-0.0239862110466,-1.00300753117,90.447715044,,,,,-79.9,-19.09,-177.96,82.1093740463
-0.0346169024706,-0.0243065450341,-0.99028134346,90.4500911236,,,,,-78.41,-18.13,-178.4,82.1097681522
-0.0334185883403,-0.0181611720473,-0.992257833481,90.45246315,,,,,-70.11,-19.63,-179.17,82.1101310253
-0.0373806282878,-0.0287623312324,-0.986427783966,90.4549500942,,,,,-65.98,-21.03,-179.04,82.1104931831
-0.0444735586643,-0.0306249130517,-0.975232303143,90.4573140144,,,,,-65.71,-21.92,-177.71,82.1113920212
-0.0375134795904,-0.0249568913132,-0.985537409782,90.4971730709,,,,,-76.22,-20.14,-177.53,82.1117811203
-0.0345041528344,-0.0293457116932,-0.991932272911,90.4995470047,,,,,-82.72,-18.98,-179.59,82.112142086
-0.0237298160791,-0.0150764826685,-0.984776616096,90.5019540787,,,,,-80.65,-19.51,-180.41,82.1125030518
-0.0337367579341,-0.0235689077526,-0.996605038643,90.5043711662,,,,,-71.09,-21.56,-179.46,82.1479380131
-0.0343537479639,-0.023792071268,-1.01136505604,90.5070660114,,,,,-68.36,-22.28,-177.97,82.1488740444
-0.0317982211709,0.0171058755368,-0.99113202095,90.5469310284,,,,,-80.8,-21.71,-176.05,82.1492660046
-0.0293101854622,0.0449902117252,-0.969313323498,90.5493080616,,,,,-86.62,-21.57,-176.84,82.14965415
-0.0345760434866,0.0439291000366,-0.983157157898,90.5517141819,,,,,-88.23,-22.09,-177.84,82.1500179768
-0.0390917435288,0.0250883307308,-1.01254403591,90.5541269779,,,,,-83.96,-22.36,-177.31,82.1503801346
-0.0408109724522,0.00190022587776,-1.02623391151,90.5912070274,,,,,-71.85,-21.06,-174.47,82.1512839794
-0.0637122094631,0.00961156748235,-1.01306343079,90.5936250687,,,,,-73.23,-21.03,-174.44,82.1516749859
-0.0653624683619,0.0101357679814,-1.00315415859,90.5959990025,,,,,-81.46,-22.72,-175.77,82.1520349979
-0.0480850785971,0.0138010513037,-1.02035629749,90.5984311104,,,,,-84.63,-23.66,-176.4,82.1523971558
-0.0461842566729,0.0212171245366,-1.03605401516,90.6008050442,,,,,-83.51,-22.75,-176.51,82.1527581215
-0.0593341365457,0.0197003018111,-1.04515779018,90.6374020576,,,,,-79.58,-21.09,-176.17,82.1536920071
-0.062276519835,0.026438863948,-1.07224571705,90.6397972107,,,,,-75.13,-19.62,-175.81,82.1540381908
-0.0603744611144,0.0275782067329,-1.08327257633,90.6421711445,,,,,-71.04,-20.23,-175.55,82.1543991566
-0.0601981952786,0.0272748041898,-1.07568836212,90.6445791721,,,,,-72.68,-22.22,-175.77,82.154761076
-0.0492881536484,0.0262440536171,-1.08539330959,90.6469841003,,,,,-79.98,-24.83,-176.44,82.1551220417
-0.0472349151969,0.0430802702904,-1.10361516476,90.6877281666,,,,,-82.84,-24.0,-176.69,82.1554830074
-0.0578037798405,0.0346376001835,-1.11273574829,90.6900970936,,,,,-82.28,-20.04,-176.53,82.1563789845
-0.0609004050493,0.0139059964567,-1.11610078812,90.6924710274,,,,,-75.1,-19.84,-175.98,82.1567690372
-0.0601012632251,0.0273565966636,-1.1190019846,90.6949310303,,,,,-70.18,-23.69,-176.12,82.1571321487
-0.0641035884619,0.043292440474,-1.1167434454,90.6973011494,,,,,-70.22,-24.69,-176.6,82.1575100422
-0.0729990005493,0.0425519943237,-1.11779987812,90.7363460064,,,,,-74.28,-22.33,-177.77,82.1578860283
-0.067273542285,0.0436113253236,-1.13467860222,90.7387180328,,,,,-76.74,-19.98,-178.26,82.1587741375
-0.0601198524237,0.0427068248391,-1.1395611763,90.741091013,,,,,-75.01,-17.93,-178.75,82.1959490776
-0.0633405745029,0.0310908798128,-1.13624942303,90.7435340881,,,,,-71.4,-18.94,-178.52,82.1963131428
-0.0645883381367,0.0269398521632,-1.14118981361,90.7797460556,,,,,-65.84,-20.26,-177.48,82.1966760159
-0.0603094100952,0.0330591499805,-1.15208530426,90.7821881771,,,,,-66.38,-20.03,-176.96,82.1970369816
-0.061317384243,0.0420428290963,-1.15462517738,90.7846059799,,,,,-75.05,-19.15,-176.87,82.1979730129
-0.0714338570833,0.0553710013628,-1.15817034245,90.7869842052,,,,,-83.06,-19.85,-177.89,82.1983640194
-0.0721547156572,0.0608056485653,-1.17380702496,90.7893671989,,,,,-79.06,-21.6,-177.8,82.1987249851
-0.0693884044886,0.0683624744415,-1.16659653187,90.8279371262,,,,,-73.96,-22.01,-177.05,82.1990861893
-0.0554029718041,0.0812216028571,-1.15313208103,90.8303470612,,,,,-69.55,-22.06,-176.18,82.1994481087
-0.0426637604833,0.0766507312655,-1.11951446533,90.8327231407,,,,,-70.31,-21.72,-175.59,82.2003509998
-0.0360868424177,0.0592032968998,-1.10319185257,90.8351340294,,,,,-84.9,-22.58,-177.91,82.2007441521
-0.0245414189994,0.053793258965,-1.08890759945,90.837542057,,,,,-85.37,-22.56,-178.13,82.2010910511
-0.0319075211883,0.0487402379513,-1.09401905537,90.8769061565,,,,,-82.33,-21.91,-177.78,82.2014520168
-0.0372436121106,0.0457971543074,-1.09683156013,90.8793179989,,,,,-71.59,-19.5,-176.47,82.2018141747
-0.0229351483285,0.0685337558389,-1.09443664551,90.8816940784,,,,,-68.2,-18.76,-176.28,82.2027151585
-0.0393143072724,0.0775994062424,-1.08713436127,90.8841080666,,,,,-75.18,-21.26,-177.76,82.2033720016
-0.0482438504696,0.0718849152327,-1.08407711983,90.8865170479,,,,,-80.7,-22.01,-177.96,82.2037401199
-0.0317881479859,0.0689254701138,-1.09638404846,90.9263300896,,,,,-79.71,-20.93,-177.4,82.2041010857
-0.037744551897,0.0676397457719,-1.12861657143,90.9287071228,,,,,-76.21,-19.53,-176.66,82.2044630051
-0.0438951328397,0.0858400166035,-1.13974261284,90.9310801029,,,,,-67.66,-18.97,-175.37,82.2053501606
-0.0432177633047,0.122287988663,-1.1153138876,90.9335072041,,,,,-71.04,-23.47,-175.22,82.2057740688
-0.051713205874,0.0958895087242,-1.07965970039,90.9695370197,,,,,-75.6,-23.5,-175.43,82.2061371803
-0.0541235879064,0.0643285214901,-1.08626425266,90.9722321033,,,,,-79.51,-22.25,-175.56,82.2064981461
-0.0455449298024,0.0654111206532,-1.09209358692,90.9746780396,,,,,-81.0,-18.93,-175.46,82.2068600655
-0.0355769842863,0.0525353178382,-1.09893059731,90.9770569801,,,,,-78.5,-18.58,-175.3,82.2454199791
-0.0309878010303,0.044826105237,-1.0982786417,90.9794330597,,,,,-70.67,-21.99,-175.66,82.2458281517
-0.0493440553546,0.0395909994841,-1.1082252264,91.0173771381,,,,,-70.74,-22.2,-176.15,82.2461900711
-0.0530021935701,0.056127011776,-1.12323725224,91.0197541714,,,,,-74.9,-20.17,-177.16,82.2465519905
-0.0372420176864,0.0859956741333,-1.10585260391,91.0221672058,,,,,-77.62,-19.05,-177.5,82.2469131947
-0.0519693642855,0.0790150910616,-1.10697424412,91.0245790482,,,,,-79.42,-19.12,-177.79,82.2478020191
-0.0572892278433,0.0737955272198,-1.104398489,91.0269529819,,,,,-69.76,-21.05,-177.29,82.2481911182
-0.0652221143246,0.0881483033299,-1.1129527092,91.0673210621,,,,,-66.82,-20.86,-177.04,82.2485530376
-0.0652417615056,0.0904950723052,-1.11834776402,91.0697221756,,,,,-66.54,-20.34,-176.91,82.2489140034
-0.0557451397181,0.10014847666,-1.13639366627,91.0720992088,,,,,-74.5,-20.05,-177.57,82.2492761612
-0.0612819492817,0.11216314137,-1.12816154957,91.074516058,,,,,-79.89,-20.49,-178.31,82.2501790524
-0.0704003348947,0.0998610109091,-1.11213350296,91.0768899918,,,,,-79.78,-20.61,-180.05,82.2505681515
-0.0750093311071,0.0841737762094,-1.09000527859,91.1150491238,,,,,-74.62,-19.64,-180.03,82.2509300709
-0.0594150945544,0.0741214156151,-1.09479498863,91.1174411774,,,,,-68.48,-17.79,-180.18,82.2512900829
-0.0566058084369,0.0628473237157,-1.10210669041,91.1198310852,,,,,-70.73,-17.74,-180.7,82.2516520023
-0.0638559907675,0.0567930489779,-1.10737609863,91.1222081184,,,,,-81.48,-19.33,-182.22,82.2525541782
-0.057793751359,0.0638152062893,-1.11892902851,91.1595971584,,,,,-85.75,-20.38,-182.11,82.2529799938
-0.046626880765,0.0814161747694,-1.11268389225,91.1619770527,,,,,-78.02,-19.04,-179.25,82.253344059
-0.0389671400189,0.0988345444202,-1.10983026028,91.1643850803,,,,,-73.2,-18.64,-177.48,82.2537341118
-0.0475280731916,0.0963679403067,-1.10983681679,91.1667900085,,,,,-71.12,-20.56,-174.99,82.2540969849
-0.0477162897587,0.106012761593,-1.10964095592,91.1691560745,,,,,-74.52,-22.74,-174.47,82.2549991608
-0.0284555964172,0.117242574692,-1.11159396172,91.2077310085,,,,,-85.29,-25.64,-174.05,82.2553892136
-0.0273831486702,0.0935795232654,-1.11987555027,91.2101070881,,,,,-84.31,-24.65,-173.68,82.255751133
-0.0664588734508,0.0776498019695,-1.11294865608,91.2124831676,,,,,-76.16,-22.76,-172.71,82.2561120987
-0.0695873573422,0.0950733572245,-1.08565998077,91.2149341106,,,,,-72.64,-23.08,-172.42,82.2564730644
-0.0651047751307,0.0866308137774,-1.08832657337,91.2173101902,,,,,-74.37,-25.28,-172.86,82.29165411
-0.0673267990351,0.0851822495461,-1.09406483173,91.2569019794,,,,,-83.42,-25.85,-174.56,82.2920701504
-0.0675355792046,0.0845608562231,-1.10975766182,91.2592880726,,,,,-87.1,-23.68,-176.06,82.2924420834
-0.0774676650763,0.0827291160822,-1.10508418083,91.2616920471,,,,,-84.96,-22.74,-176.34,82.2928411961
-0.0664922147989,0.0993722528219,-1.09269821644,91.264108181,,,,,-78.82,-22.59,-175.87,82.2932071686
-0.0644781216979,0.103864789009,-1.08602273464,91.2664821148,,,,,-77.44,-23.27,-175.52,82.2941451073
-0.0637801587582,0.11889487505,-1.07076561451,91.3049972057,,,,,-81.87,-24.88,-175.64,82.2945342064
-0.0692163705826,0.120063215494,-1.03679800034,91.3073730469,,,,,-83.92,-24.75,-176.16,82.2948970795
-0.0661106407642,0.11338198185,-1.03002405167,91.3097770214,,,,,-85.85,-23.65,-177.28,82.2952580452
-0.0696126893163,0.102776668966,-1.0261695385,91.312153101,,,,,-85.33,-23.08,-177.79,82.2956180573
-0.0754959210753,0.101721376181,-1.02116763592,91.3489370346,,,,,-81.02,-22.93,-178.7,82.2965211868
-0.0685295462608,0.108463823795,-1.02604413033,91.3516571522,,,,,-75.04,-23.96,-179.72,82.2969110012
-0.0598713234067,0.109371438622,-1.01428210735,91.3540670872,,,,,-75.34,-24.17,-180.84,82.2972710133
-0.0674831718206,0.0959465801716,-1.00574731827,91.3564431667,,,,,-78.52,-23.56,-181.45,82.2976331711
-0.0823943167925,0.0863104835153,-1.00591874123,91.3588471413,,,,,-82.13,-22.83,-181.96,82.2979931831
-0.0673762112856,0.0770712867379,-1.0056322813,91.3972342014,,,,,-83.72,-22.07,-182.32,82.2988960743
-0.0555407628417,0.0751463100314,-0.990327835083,91.3996431828,,,,,-70.67,-23.86,-180.81,82.2992861271
-0.0527153983712,0.0800700709224,-0.968813300133,91.4020152092,,,,,-69.31,-24.13,-180.12,82.2996470928
-0.0409716889262,0.092767432332,-0.951941907406,91.4044811726,,,,,-76.88,-23.74,-179.28,82.3000080585
-0.0487329512835,0.100318834186,-0.949036359787,91.4068920612,,,,,-82.32,-23.39,-179.14,82.300369978
-0.0573460012674,0.0910931974649,-0.976234138012,91.4474980831,,,,,-85.39,-23.12,-178.66,82.3012561798
-0.0424922853708,0.0786470323801,-0.981201052666,91.4498710632,,,,,-76.99,-22.88,-177.06,82.301680088
-0.0531155914068,0.0902189835906,-0.958639085293,91.4522480965,,,,,-72.68,-21.88,-175.4,82.3020260334
-0.0687695145607,0.0943364948034,-0.936736226082,91.4547011852,,,,,-75.72,-21.3,-175.02,82.3367540836
-0.0663810893893,0.102760955691,-0.91452652216,91.4570651054,,,,,-81.14,-20.93,-175.04,82.3371200562
-0.05152605474,0.111999958754,-0.905561208725,91.4948821068,,,,,-90.55,-20.82,-175.57,82.3380250931
-0.0434331744909,0.0924989581108,-0.933117508888,91.4972560406,,,,,-85.53,-20.05,-174.83,82.3384160995
-0.0382246822119,0.10211288929,-0.939124464989,91.4996290207,,,,,-82.34,-19.4,-174.37,82.338778019
-0.0276967771351,0.104657292366,-0.935669898987,91.5020360947,,,,,-81.05,-18.86,-174.11,82.3391411304
-0.00413203425705,0.0690063014627,-0.936380624771,91.5381031036,,,,,-85.0,-19.14,-174.37,82.3395020962
0.00497024133801,0.0479116812348,-0.924614489079,91.5404760838,,,,,-88.38,-19.9,-174.75,82.3403961658
0.00572936050594,0.0622094646096,-0.886229217052,91.5429151058,,,,,-89.11,-21.57,-175.48,82.3407859802
0.00937454309314,0.101134769619,-0.863499224186,91.5452950001,,,,,-86.12,-20.94,-175.5,82.3411471844
0.00367160141468,0.09420902282,-0.878006875515,91.5476679802,,,,,-80.06,-19.21,-175.52,82.3415391445
0.00140488345642,0.0655406191945,-0.905122935772,91.5876250267,,,,,-78.36,-19.01,-175.56,82.3419020176
0.000555859995075,0.0787259861827,-0.92326939106,91.5900321007,,,,,-78.72,-20.9,-175.88,82.3428361416
-0.00938468798995,0.0907506793737,-0.932696700096,91.5924041271,,,,,-84.16,-22.17,-176.2,82.3432271481
-0.0146606005728,0.0756507515907,-0.929569721222,91.5948200226,,,,,-85.06,-21.19,-176.05,82.3435890675
-0.00690452009439,0.067610822618,-0.918309748173,91.5971961021,,,,,-84.48,-20.15,-175.73,82.3439500332
-0.0123806931078,0.0627723038197,-0.918652951717,91.636631012,,,,,-78.42,-20.44,-175.32,82.3443109989
-0.0151348896325,0.051420122385,-0.919991374016,91.6390361786,,,,,-75.0,-21.74,-175.48,82.3452131748
-0.00298085063696,0.0638417080045,-0.930582642555,91.641408205,,,,,-76.55,-23.34,-177.36,82.3456029892
-0.00470477342606,0.102719835937,-0.928248047829,91.6438190937,,,,,-80.22,-22.16,-177.88,82.345965147
-0.0195114910603,0.108282536268,-0.928238868713,91.6809790134,,,,,-82.25,-20.04,-178.41,82.3463270664
-0.0403580218554,0.078750051558,-0.919269561768,91.6833951473,,,,,-78.29,-20.17,-178.51,82.3466889858
-0.0402507260442,0.0669316649437,-0.919960081577,91.6858050823,,,,,-66.01,-22.28,-178.57,82.3475902081
-0.0272492617369,0.0692796930671,-0.931621909142,91.6881811619,,,,,-63.64,-23.43,-178.02,82.386231184
-0.0310293007642,0.0759209394455,-0.926724672318,91.690557003,,,,,-74.63,-22.51,-176.85,82.3865950108
-0.0450173392892,0.0602885484695,-0.905948638916,91.7278079987,,,,,-79.86,-22.22,-176.28,82.3869559765
-0.0275475494564,0.0535734295845,-0.896834552288,91.7301840782,,,,,-79.67,-22.92,-175.4,82.3873181343
-0.028314076364,0.0697121545672,-0.908746063709,91.732558012,,,,,-75.27,-23.56,-174.86,82.3882369995
-0.0390458330512,0.0908776596189,-0.88323456049,91.7350101471,,,,,-72.1,-22.69,-172.89,82.3886270523
-0.0365967452526,0.102914884686,-0.855038583279,91.7373871803,,,,,-77.86,-21.94,-172.64,82.3889892101
-0.0551633685827,0.0912050157785,-0.858339130878,91.7771651745,,,,,-90.38,-21.49,-173.44,82.3893511295
-0.0524662137032,0.0884994268417,-0.850112915039,91.7795410156,,,,,-92.6,-21.89,-174.13,82.3897461891
-0.042255744338,0.0874078199267,-0.870897293091,91.781951189,,,,,-83.19,-21.91,-174.63,82.390650034
-0.0518917217851,0.0722446218133,-0.878298282623,91.7843651772,,,,,-80.36,-21.12,-174.42,82.3910391331
-0.0343732833862,0.0875055715442,-0.871845602989,91.7867350578,,,,,-81.36,-20.21,-174.49,82.3914000988
-0.0403193458915,0.101368434727,-0.87961935997,91.8266141415,,,,,-83.8,-20.84,-174.84,82.3917620182
-0.0456923991442,0.103734649718,-0.881599009037,91.8289890289,,,,,-86.86,-23.39,-175.2,82.3921220303
-0.0482167601585,0.110566049814,-0.880933105946,91.8314020634,,,,,-86.36,-24.11,-175.0,82.3930439949
