acc x,acc y,acc z,accTime,com x,com y,com z,comTime,gyro x,gyro y,gyro z,gyroTime
0.00683477334678,0.0666392967105,-0.911980688572,20.907307148,,,,,1.0,6.48,-1.47,20.9053661823
0.00724703632295,0.061644166708,-0.912489593029,20.9097130299,,,,,3.78,5.31,-0.85,20.9057910442
0.00770147144794,0.0429037511349,-0.910797417164,20.9121119976,,,,,6.41,5.44,-0.66,20.9061620235
0.00207380577922,0.0404757782817,-0.92458409071,20.914632082,,,,,7.53,5.68,-0.41,20.9065291882
0.00591701362282,0.0547881275415,-0.92859351635,20.9170911312,,,,,3.98,5.53,0.15,20.9068992138
0.000912292045541,0.0529254078865,-0.934980690479,20.9195051193,,,,,0.26,5.18,0.55,20.9078221321
-0.005964204669,0.0565673112869,-0.914298713207,20.921900034,,,,,-1.89,4.22,1.26,20.9082159996
-0.000775661203079,0.0566720962524,-0.90623497963,20.9243590832,,,,,0.79,4.69,1.25,20.9085800648
-0.00855364277959,0.0514089986682,-0.904346227646,20.9267630577,,,,,4.18,5.86,1.12,20.9089481831
-0.0127672739327,0.0694403126836,-0.893279850483,20.9292011261,,,,,3.43,5.93,1.09,20.9093141556
-0.00843722373247,0.0701699852943,-0.913591980934,20.9315931797,,,,,-1.25,5.09,1.23,20.9102330208
-0.00750801153481,0.0440534427762,-0.917416155338,20.9340441227,,,,,0.44,4.15,1.04,20.9106249809
-0.00577581673861,0.0516817644238,-0.923696398735,20.9364230633,,,,,3.01,4.9,0.67,20.9109899998
-0.00161373231094,0.0595624595881,-0.932264924049,20.9388141632,,,,,4.48,5.84,0.3,20.9113550186
0.000180427101441,0.035328373313,-0.924987018108,20.9412481785,,,,,3.22,6.82,-0.19,20.9117190838
0.00167167943437,0.0299308504909,-0.916503250599,20.9436872005,,,,,1.62,6.59,-0.25,20.9126281738
0.000589655828662,0.0399169921875,-0.918289363384,20.9460849762,,,,,4.23,4.15,-0.13,20.9131331444
-0.00538873299956,0.0488914474845,-0.930550515652,20.9484941959,,,,,7.17,4.01,-0.27,20.9135069847
-0.00970200076699,0.0707183256745,-0.933670938015,20.9508900642,,,,,8.43,5.23,-0.49,20.9138720036
-0.00133452180307,0.0632330402732,-0.924144208431,20.9533400536,,,,,6.64,5.77,-0.57,20.9142360687
0.00913350377232,0.0597736239433,-0.920848608017,20.9557352066,,,,,2.8,5.59,-0.68,20.9151492119
-0.00404481589794,0.0711335167289,-0.908430039883,20.9581670761,,,,,5.21,3.77,-0.79,20.9155421257
-0.00535721704364,0.0672665312886,-0.893754780293,20.9605619907,,,,,9.73,3.36,-0.77,20.9159061909
3.04115237668e-05,0.0600316524506,-0.900505840778,20.9630219936,,,,,8.95,4.13,-0.67,20.9162700176
-0.00683604180813,0.054243221879,-0.907613396645,20.9654231071,,,,,1.71,5.78,-0.67,20.9166820049
-0.0141003802419,0.0536518841982,-0.93524068594,20.9678311348,,,,,-1.56,6.12,-1.07,20.9176189899
-0.00700211152434,0.0563934370875,-0.938149571419,20.9702281952,,,,,2.63,5.75,-2.73,20.9180190563
-0.00421569868922,0.0586836487055,-0.945086181164,20.9726212025,,,,,6.3,6.16,-2.82,20.9183850288
-0.00315742008388,0.0709713101387,-0.923243284225,20.9750812054,,,,,6.05,8.09,-1.89,20.9187471867
-0.000778701039962,0.0651651322842,-0.907824099064,20.97747612,,,,,1.91,8.63,-1.39,20.9191122055
-0.00632554851472,0.0471260845661,-0.920049965382,20.9798710346,,,,,-5.78,7.97,-1.68,20.9200201035
-0.0207677148283,0.046650275588,-0.920765757561,20.9822640419,,,,,-3.65,7.25,-2.85,20.9204120636
-0.0164344832301,0.0561645105481,-0.933763623238,20.9846940041,,,,,3.84,8.56,-2.73,20.9207780361
-0.0010095591424,0.0637527629733,-0.942726194859,20.9871101379,,,,,4.54,9.67,-2.07,20.9211421013
-0.00547418184578,0.0660629719496,-0.933974146843,20.9895200729,,,,,-2.65,9.83,-1.09,20.9215071201
-0.0168878026307,0.0583802387118,-0.920731246471,20.9919140339,,,,,-7.53,8.85,-1.42,20.9224209785
-0.014074344188,0.0467756763101,-0.91895788908,20.9943380356,,,,,-8.57,7.31,-3.98,20.9228610992
-0.011395290494,0.0423081889749,-0.925449132919,20.9967300892,,,,,-4.61,8.25,-4.14,20.923235178
-0.0205347202718,0.0558125078678,-0.931074976921,20.9991531372,,,,,-0.12,10.56,-3.17,20.9236011505
-0.0112119279802,0.0590810328722,-0.932456433773,21.0015439987,,,,,-1.77,10.76,-2.63,20.9239649773
-0.000372020411305,0.056265681982,-0.935269117355,21.0041861534,,,,,-8.39,8.9,-3.21,20.924875021
-0.00633334740996,0.0588328167796,-0.922631800175,21.0065832138,,,,,-9.33,7.6,-5.05,20.9252691269
-0.0179942287505,0.0488136559725,-0.920695960522,21.0090100765,,,,,-1.92,8.9,-4.86,20.9256360531
-0.0180811621249,0.0539785549045,-0.930148720741,21.0114049911,,,,,1.31,9.83,-3.76,20.9260010719
-0.0144511424005,0.0649692267179,-0.925082504749,21.0138421059,,,,,0.88,9.92,-1.26,20.9263651371
-0.00501721166074,0.0581708326936,-0.930851578712,21.0162370205,,,,,-1.76,8.83,-0.9,20.9272801876
0.00527837499976,0.06065646559,-0.923738777637,21.0186641216,,,,,-5.2,6.56,-3.04,20.9276812077
0.00739507377148,0.0651988983154,-0.919054389,21.0210831165,,,,,-2.97,6.94,-3.09,20.9280791283
-0.000924257445149,0.0540917217731,-0.924139618874,21.023512125,,,,,0.75,8.31,-0.57,20.9284451008
-0.00697636045516,0.0473705157638,-0.921727180481,21.0255720615,,,,,0.13,8.35,1.35,20.928809166
-0.00959549658,0.0480431765318,-0.938869893551,21.0279669762,,,,,-4.5,6.21,3.44,20.9297161102
-0.000478906440549,0.0464603602886,-0.941504716873,21.0303590298,,,,,-6.6,4.06,1.75,20.9301080704
0.00149154674727,0.051700592041,-0.948974788189,21.0327801704,,,,,-3.16,5.19,0.36,20.9304711819
-0.00320007652044,0.0484053790569,-0.947932183743,21.0352060795,,,,,-1.4,6.53,0.91,20.9308362007
-0.0141408257186,0.0490851998329,-0.944518148899,21.0376181602,,,,,-1.01,7.6,2.13,20.9312000275
-0.0253154300153,0.0395743399858,-0.957472681999,21.0400121212,,,,,-3.25,6.91,4.0,20.9321072102
-0.0197067223489,0.0213766526431,-0.965570271015,21.0424251556,,,,,-1.14,3.24,0.33,20.932500124
-0.00739681348205,0.0335163548589,-0.97486281395,21.0448551178,,,,,1.4,3.86,-0.93,20.9328970909
-0.0063234269619,0.0384611189365,-0.968620359898,21.047260046,,,,,3.61,5.35,-1.31,20.9332771301
-0.00777449831367,0.0476598292589,-0.949312746525,21.049654007,,,,,3.37,8.23,0.25,20.9336490631
0.000778623041697,0.0555871203542,-0.925863683224,21.0520482063,,,,,0.82,6.6,0.74,20.9345581532
0.00643127225339,0.049319922924,-0.935910344124,21.0544970036,,,,,2.95,3.34,-1.99,20.934951067
-0.00207030028105,0.0516452044249,-0.94643163681,21.0569009781,,,,,7.78,4.27,-3.79,20.9352991581
0.00424902327359,0.0614109933376,-0.931768357754,21.0592930317,,,,,8.43,6.09,-3.27,20.9356641769
0.0039075948298,0.0648630782962,-0.929835617542,21.061686039,,,,,6.9,7.72,-2.05,20.9360301495
-0.00812366604805,0.0612794756889,-0.935755074024,21.0641131401,,,,,-1.39,5.82,-0.73,20.9369380474
-0.0199757181108,0.060410939157,-0.940025508404,21.0665581226,,,,,1.61,3.21,-3.09,20.9373300076
-0.0222833938897,0.0615122243762,-0.94384008646,21.0689539909,,,,,4.81,3.63,-3.73,20.9376940727
-0.0147866904736,0.0545240417123,-0.960405945778,21.071349144,,,,,7.28,5.07,-3.51,20.9380581379
-0.00987891852856,0.0596461966634,-0.965808689594,21.0737872124,,,,,5.42,7.98,-1.26,20.9384222031
0.00335187092423,0.0680265128613,-0.956803202629,21.0761840343,,,,,1.53,8.15,-0.37,20.9393529892
0.00296648219228,0.0560342073441,-0.970672488213,21.0786399841,,,,,-2.07,4.5,-2.62,20.9397470951
-0.0128686204553,0.0464786887169,-0.955911040306,21.0810420513,,,,,1.34,4.35,-3.73,20.9401199818
-0.0106913633645,0.0448630750179,-0.952139139175,21.0834760666,,,,,8.77,6.67,-3.72,20.9404911995
0.00217135995626,0.0464309677482,-0.960608005524,21.0858700275,,,,,9.35,8.19,-2.63,20.9408540726
0.000871574622579,0.0446833148599,-0.959828317165,21.0882890224,,,,,-0.17,7.91,-1.06,20.9418041706
-0.00482131354511,0.0489657223225,-0.962628662586,21.0906820297,,,,,-1.61,6.76,-2.14,20.942152977
-0.0141693428159,0.055428750813,-0.954013288021,21.0931060314,,,,,2.42,6.32,-4.19,20.9425170422
-0.0189420469105,0.0646890178323,-0.960959732533,21.0955030918,,,,,5.64,7.3,-3.99,20.9429261684
-0.015443559736,0.0572967901826,-0.962120711803,21.0978960991,,,,,6.53,9.77,-0.89,20.9432930946
-0.000388992833905,0.0632351785898,-0.954772472382,21.1003131866,,,,,3.1,10.1,0.76,20.9442000389
0.00846215337515,0.0614891648293,-0.952933132648,21.1027100086,,,,,-6.3,6.97,-0.84,20.9445931911
-0.00160160649102,0.0488673970103,-0.953159332275,21.1051390171,,,,,-5.44,6.59,-2.61,20.9449570179
-0.0127997025847,0.0524508729577,-0.961866080761,21.1075270176,,,,,-0.53,8.52,-3.31,20.9453210831
-0.0208772681653,0.0589945912361,-0.951614558697,21.1099209785,,,,,0.79,9.92,-1.83,20.9456861019
0.00816828757524,0.0580356046557,-0.970937252045,21.1127691269,,,,,-2.47,10.37,1.7,20.9466052055
-0.0054301135242,0.0569984167814,-0.956834077835,21.1151981354,,,,,-6.63,6.62,0.8,20.9469971657
-0.0194830559194,0.0563691332936,-0.97110080719,21.117590189,,,,,-5.01,4.94,-2.83,20.9473621845
-0.02227505669,0.0615781471133,-0.977548837662,21.1199901104,,,,,-2.83,6.04,-3.49,20.9477331638
-0.0236096680164,0.05575645715,-1.00143539906,21.1224131584,,,,,-0.46,10.02,-1.28,20.9481010437
-0.0176174752414,0.0484603047371,-0.996351957321,21.1248390675,,,,,-1.66,10.94,0.3,20.9490101337
-0.0160986296833,0.0492844358087,-0.987389802933,21.1272351742,,,,,-7.29,5.51,-0.95,20.9494020939
-0.0229734517634,0.0479226559401,-0.979571342468,21.1296350956,,,,,-7.34,3.93,-2.67,20.9497680664
-0.0160042904317,0.0485119149089,-0.982707858086,21.1320281029,,,,,-5.27,5.27,-3.72,20.9501311779
-0.0132065452635,0.0433509424329,-0.994473218918,21.1345121861,,,,,-4.2,7.42,-2.69,20.9504961967
-0.0243770591915,0.0483013913035,-0.997576713562,21.1369071007,,,,,-4.88,9.37,-0.1,20.9514319897
-0.01833775267,0.0514611303806,-0.994076609612,21.1392941475,,,,,-6.89,4.91,-0.32,20.9518241882
-0.0130620412529,0.0624604299664,-0.968022584915,21.1416730881,,,,,-5.14,0.82,-2.13,20.9521892071
-0.0151758380234,0.0738654136658,-0.966333985329,21.1441040039,,,,,-3.14,1.15,-2.25,20.9525520802
-0.0123922377825,-0.0173554178327,319.726837158,21.146515131,,,,,1.14,5.03,-0.56,20.952944994
-0.0103981420398,0.0579065158963,-0.984422087669,21.1488761902,,,,,1.77,6.52,0.4,20.9538550377
-0.00604156032205,0.0642685592175,-0.988296151161,21.1512670517,,,,,0.2,2.46,-0.82,20.9542469978
-0.0121088698506,0.0576367750764,-0.994830012321,21.1536920071,,,,,0.65,0.97,-2.2,20.9546132088
-0.0258745215833,0.0569728314877,-0.968561291695,21.1560850143,,,,,3.43,2.19,-3.8,20.9549779892
-0.0235616229475,0.0533301755786,-0.964471161366,21.1584951878,,,,,4.85,4.27,-3.53,20.9553411007
-0.0162123516202,0.0568732395768,-0.971595346928,21.160900116,,,,,4.28,6.79,-1.81,20.9562501907
-0.0168574266136,0.0580112338066,-0.969232141972,21.1636691093,,,,,1.45,3.4,-1.38,20.9566671848
-0.0217737071216,0.0531399324536,-0.97194725275,21.1660711765,,,,,2.07,0.13,-2.89,20.9570410252
-0.0224583186209,0.0641800388694,-0.959030210972,21.2029221058,,,,,3.35,0.42,-3.48,20.9574081898
-0.0263637192547,0.0558032914996,-0.959083020687,21.2053201199,,,,,4.39,1.85,-3.44,20.9577741623
-0.0249483399093,0.0437767803669,-0.963228285313,21.2077150345,,,,,3.29,4.8,-1.59,20.9586830139
-0.0184638015926,0.0639914944768,-0.967070937157,21.2101061344,,,,,-1.09,0.25,-0.73,20.9590752125
-0.0115512050688,0.065691396594,-0.965445756912,21.2124960423,,,,,0.23,-1.47,-1.75,20.9594390392
-0.0128937736154,0.0472262501717,-0.975804924965,21.2494170666,,,,,4.25,-0.58,-3.54,20.9598040581
-0.0210363827646,0.0385350510478,-0.996757507324,21.2518160343,,,,,5.39,1.62,-3.64,20.9601690769
-0.031829200685,0.0313152596354,-1.01214373112,21.2542481422,,,,,4.98,3.9,-3.27,20.9610772133
-0.0311770308763,0.0399081408978,-1.01892364025,21.2566430569,,,,,-0.81,2.43,-3.41,20.9614691734
-0.0242503397167,0.046750113368,-1.00548171997,21.2590360641,,,,,1.35,-1.63,-5.71,20.9618330002
-0.0222379751503,0.046494551003,-0.985987782478,21.2984881401,,,,,3.31,-1.73,-6.37,20.962198019
-0.0209417268634,0.0407668799162,-0.995483398438,21.3009011745,,,,,4.77,-0.27,-6.36,20.9625871181
-0.0257531255484,0.0507635474205,-1.00023674965,21.3033370972,,,,,3.49,4.6,-5.03,20.9635400772
-0.0369813889265,0.0494645759463,-1.01357996464,21.3057301044,,,,,-3.86,2.11,-5.97,20.9639341831
-0.0373738929629,0.0418108031154,-1.0130931139,21.3081240654,,,,,-4.06,-0.51,-6.91,20.964299202
-0.0274459607899,0.0644966214895,-0.99197947979,21.3479809761,,,,,-3.34,-2.28,-7.28,20.9646661282
-0.0200289152563,0.076563924551,-0.99124610424,21.3503730297,,,,,-1.39,-1.11,-5.52,20.965031147
-0.0196676291525,0.0643678754568,-1.00542974472,21.3527681828,,,,,-1.06,1.17,-4.01,20.9659411907
-0.0275034345686,0.065592482686,-1.01202428341,21.3551959991,,,,,-5.47,2.48,-2.68,20.9663391113
-0.029258068651,0.0654449909925,-1.00387072563,21.3924570084,,,,,-6.32,0.44,-3.41,20.9667050838
-0.0241039730608,0.0540149211884,-0.985152959824,21.3949010372,,,,,-5.49,-2.61,-3.83,20.967069149
-0.0260552987456,0.0572651550174,-0.995777606964,21.3972930908,,,,,-4.06,-2.38,-3.01,20.9674341679
-0.0158964209259,0.0604334101081,-1.00245881081,21.3996891975,,,,,-0.14,0.37,-0.82,20.9683480263
-0.0140492841601,0.0453022047877,-1.01040220261,21.4020740986,,,,,-0.08,-0.58,-1.44,20.9687411785
-0.0232695564628,0.0502191856503,-1.00000488758,21.4386839867,,,,,-0.52,-2.05,-2.46,20.9691061974
-0.0290879234672,0.0635748803616,-0.976522088051,21.4410731792,,,,,-0.72,-2.94,-3.11,20.9694700241
-0.0338742136955,0.0356963202357,-0.986736416817,21.4434971809,,,,,0.91,-2.19,-2.83,20.969835043
-0.0283597558737,0.0207649599761,-1.00711488724,21.44592309,,,,,2.69,-1.1,-2.24,20.9707419872
-0.0199312902987,0.0495650321245,-1.02307486534,21.4483280182,,,,,6.07,-1.85,-1.58,20.9711351395
-0.0271069444716,0.0640880018473,-1.02660489082,21.4888701439,,,,,6.3,-3.17,-1.82,20.9714992046
-0.0330798625946,0.0575350821018,-1.02458178997,21.4912631512,,,,,5.5,-4.0,-1.85,20.9718620777
-0.0361354202032,0.0501377135515,-1.02596271038,21.4936962128,,,,,4.45,-3.16,-1.41,20.9722270966
-0.0324841588736,0.0473491698503,-1.00452303886,21.4960889816,,,,,2.61,-0.73,-0.4,20.973170042
-0.0314412713051,0.0488836765289,-1.00009477139,21.4984781742,,,,,2.89,-1.04,-0.39,20.9735901356
-0.0306713078171,0.0558689013124,-1.00961685181,21.5376541615,,,,,5.91,-3.12,-1.45,20.9739580154
-0.0309455487877,0.0574132651091,-0.999388456345,21.5400431156,,,,,6.91,-3.38,-1.84,20.9743220806
-0.0253562368453,0.0499449744821,-1.01509845257,21.5424370766,,,,,4.36,-1.63,-1.56,20.9746870995
-0.01866710186,0.0412457510829,-1.03593349457,21.544875145,,,,,1.79,-0.4,-1.3,20.9755961895
-0.028340715915,0.0470139235258,-1.03552889824,21.5811932087,,,,,-0.61,-0.75,-2.56,20.9759891033
-0.0396664813161,0.0666049644351,-1.03597712517,21.5836269855,,,,,2.24,-1.89,-3.59,20.9763519764
-0.0429049283266,0.0456579476595,-1.03701901436,21.5860261917,,,,,6.86,-2.67,-4.24,20.976719141
-0.0387539118528,0.024173790589,-1.04292976856,21.5884211063,,,,,6.11,-2.04,-3.47,20.9770841599
-0.0255616568029,0.0425166189671,-1.03948807716,21.5908150673,,,,,-0.98,-0.2,-1.34,20.9779911041
-0.0110327154398,0.0577355325222,-1.02795064449,21.628745079,,,,,-6.18,-0.37,-1.46,20.9783861637
-0.00893254391849,0.0387747809291,-1.03402841091,21.6311461926,,,,,-3.17,-1.58,-3.54,20.9787490368
-0.0227394923568,0.0399522408843,-1.03233253956,21.6335761547,,,,,-0.82,-1.6,-3.96,20.9791140556
-0.0346267223358,0.0497511252761,-1.03729653358,21.63601017,,,,,-0.98,-0.24,-2.09,20.9794771671
-0.0269146226346,0.0404454097152,-1.05282592773,21.6384010315,,,,,-3.59,0.37,-0.64,20.9803860188
-0.019785117358,0.0477217286825,-1.03548908234,21.678399086,,,,,-9.55,-1.52,-0.38,20.980779171
-0.0182446166873,0.0741772949696,-1.00623512268,21.6807961464,,,,,-8.63,-2.45,-1.36,20.9811420441
-0.0230739191175,0.0762873664498,-1.00223255157,21.6835560799,,,,,-5.04,-2.78,-1.51,20.9815061092
-0.0255776457489,0.0567474514246,-1.02388334274,21.6859540939,,,,,-4.36,-2.26,-0.16,20.9818711281
-0.0339351966977,0.0476543232799,-1.05511200428,21.6883461475,,,,,-5.78,-2.39,2.92,20.982779026
-0.0385161489248,0.0545257553458,-1.0647431612,21.7276580334,,,,,-8.34,-5.26,3.04,20.9832060337
-0.0328766256571,0.0408671945333,-1.0629478693,21.7300519943,,,,,-8.18,-7.29,1.08,20.9835710526
-0.0338844433427,0.0277664642781,-1.06642341614,21.7324399948,,,,,-7.33,-6.8,0.69,20.9839370251
-0.0379967093468,0.0440795198083,-1.05550563335,21.7348752022,,,,,-6.27,-5.46,1.01,20.9843001366
-0.0355852022767,0.0537364929914,-1.05310761929,21.7708010674,,,,,-4.6,-2.94,2.38,20.9852311611
-0.0407626703382,0.0542996972799,-1.04437422752,21.7732291222,,,,,-3.82,-6.15,0.38,20.9856231213
-0.0420845076442,0.055053524673,-1.03750491142,21.7756199837,,,,,-3.66,-7.27,-0.92,20.9859890938
-0.0424121543765,0.0427068322897,-1.02645075321,21.7780070305,,,,,-2.84,-6.19,-1.96,20.986353159
-0.0344038531184,0.0366284325719,-1.02850568295,21.780395031,,,,,-2.37,-4.32,-1.47,20.9867181778
-0.0183807015419,0.0455052107573,-1.02687525749,21.8186872005,,,,,-1.91,-1.77,-0.25,20.9876191616
-0.023822363466,0.0539157539606,-1.01582205296,21.821075201,,,,,-0.68,-4.31,-0.89,20.9880120754
-0.0398334786296,0.0672129839659,-1.01447713375,21.823513031,,,,,1.38,-7.25,-2.41,20.9883751869
-0.0419684648514,0.0638928562403,-1.00682926178,21.8259141445,,,,,2.17,-7.11,-2.6,20.9887530804
-0.0381236821413,0.0609806329012,-1.01287913322,21.8283510208,,,,,2.21,-5.84,-2.17,20.9891250134
-0.0290757752955,0.059818059206,-1.00029146671,21.8684191704,,,,,0.04,-2.69,-0.55,20.9900341034
-0.0220772400498,0.0446019619703,-0.993041872978,21.8708012104,,,,,-0.02,-6.01,-1.34,20.9904270172
-0.0213725678623,0.0512862354517,-1.00545060635,21.8732221127,,,,,2.43,-7.64,-2.3,20.9907901287
-0.0364730507135,0.0529732555151,-0.996022462845,21.8756110668,,,,,4.82,-8.15,-2.85,20.9911541939
-0.0345182940364,0.0436544939876,-0.996865987778,21.8780059814,,,,,5.59,-5.8,-1.6,20.9915161133
-0.0143270790577,0.0389915779233,-1.0212635994,21.9163269997,,,,,-0.14,-3.29,0.75,20.9924252033
-0.0149679668248,0.0359580665827,-1.01523709297,21.918721199,,,,,-3.51,-5.55,0.15,20.9928472042
-0.0211055465043,0.0320036485791,-1.00637543201,21.9211111069,,,,,1.35,-8.3,-2.62,20.9932160378
-0.0215560309589,0.0465105175972,-0.999295711517,21.923538208,,,,,4.33,-7.98,-3.18,20.9935820103
-0.0232513584197,0.0576372817159,-1.00403690338,21.9596140385,,,,,5.82,-6.48,-2.65,20.9939460754
-0.0149667114019,0.0565722361207,-1.02044475079,21.9620130062,,,,,-1.79,-1.99,1.06,20.9948530197
-0.0191771760583,0.058250464499,-1.01519584656,21.9644451141,,,,,-5.16,-4.41,-0.65,20.9952449799
-0.0279634259641,0.0573315024376,-1.01317465305,21.9668440819,,,,,-3.45,-5.77,-2.31,20.9956080914
-0.030410239473,0.0472591966391,-1.02739727497,21.9695560932,,,,,-0.54,-6.25,-3.35,20.9959721565
-0.0324632078409,0.0512758791447,-1.02474927902,22.0089361668,,,,,3.39,-3.94,-1.71,20.9963359833
-0.0331885740161,0.0420377925038,-1.02812552452,22.011329174,,,,,2.72,-2.27,0.3,20.9972710609
-0.029135722667,0.0299386065453,-1.02174735069,22.0137610435,,,,,-6.61,-3.4,2.27,20.9976651669
-0.0288646928966,0.0287490282208,-1.01617944241,22.0161511898,,,,,-7.79,-5.12,1.06,20.9980301857
-0.0346623808146,0.0286572147161,-1.02673971653,22.0185441971,,,,,-5.24,-6.03,-0.46,20.9983952045
-0.0313302204013,0.0382431298494,-1.03076767921,22.058232069,,,,,-2.78,-4.78,0.12,20.9987580776
-0.0266165658832,0.0430676415563,-1.02755367756,22.0606210232,,,,,0.3,-1.94,2.64,20.999666214
-0.0298568177968,0.0319341942668,-1.03020513058,22.0630509853,,,,,-2.63,-2.99,2.92,21.0000581741
-0.0338901653886,0.0256994906813,-1.0337896347,22.0654850006,,,,,-5.69,-5.66,0.29,21.000423193
-0.0265901125968,0.0305643770844,-1.03935432434,22.0678792,,,,,-5.69,-5.37,-0.75,21.0007882118
-0.0229891575873,0.0364800989628,-1.02963280678,22.106359005,,,,,-2.43,-1.59,-0.55,21.0011520386
-0.0242520160973,0.0472006499767,-1.00627350807,22.108757019,,,,,-0.34,0.31,0.35,21.0020589828
-0.0181761719286,0.0450871288776,-1.00312232971,22.1111710072,,,,,-0.45,-2.17,1.12,21.0024662018
-0.0261519290507,0.0383454933763,-0.99199795723,22.1136131287,,,,,-1.76,-3.96,0.34,21.0030460358
-0.0375458523631,0.0309859085828,-0.999038934708,22.1496531963,,,,,-3.57,-3.13,-0.97,21.0034251213
-0.0362941324711,0.0300658997148,-1.00924551487,22.1520490646,,,,,-3.95,-0.49,-0.82,21.0037920475
-0.0254470743239,0.0419227853417,-1.00369405746,22.1544790268,,,,,-3.49,4.34,0.27,21.0047011375
-0.0248603522778,0.0540420562029,-0.989144444466,22.1568729877,,,,,-3.73,3.2,-0.01,21.0050930977
-0.0277778543532,0.048454798758,-0.983098268509,22.1592690945,,,,,-3.2,-0.06,-2.75,21.0054600239
-0.0358652248979,0.0418453887105,-1.00232744217,22.1987931728,,,,,-2.87,0.22,-4.05,21.0058250427
-0.0372954383492,0.0410345196724,-1.02021837234,22.2011961937,,,,,-3.32,4.55,-4.34,21.0061910152
-0.0232632569969,0.0423389822245,-1.04242157936,22.2039589882,,,,,-3.75,6.78,-3.57,21.0070970058
-0.024897031486,0.0423825159669,-1.03139710426,22.2063570023,,,,,-4.35,4.84,-2.61,21.0074901581
-0.0334501415491,0.0450565963984,-1.01580381393,22.208753109,,,,,-2.94,2.62,-3.38,21.0078551769
-0.0318260639906,0.0358358919621,-1.02247083187,22.2483711243,,,,,0.09,1.35,-4.28,21.0082201958
-0.0346444696188,0.0322121828794,-1.02774834633,22.2507660389,,,,,0.29,2.55,-3.53,21.0086150169
-0.0305054504424,0.03750012815,-1.02630388737,22.2532010078,,,,,-2.1,5.47,-0.51,21.0095260143
-0.0264442898333,0.0409876257181,-1.02476108074,22.2555980682,,,,,-5.71,4.78,0.88,21.0099201202
-0.0337516516447,0.0505105182528,-1.00200772285,22.2924740314,,,,,-5.74,2.25,-0.45,21.0102829933
-0.0273895673454,0.0468398705125,-0.980320811272,22.2949221134,,,,,-4.55,2.0,-1.18,21.0106492043
-0.0252118222415,0.0377479568124,-0.981639862061,22.2973160744,,,,,-3.32,3.98,-0.71,21.0110120773
-0.0391024723649,0.0422900989652,-0.997419595718,22.2997090816,,,,,-3.36,4.95,-0.04,21.0119161606
-0.0401533767581,0.0578622743487,-1.01019310951,22.3021020889,,,,,-6.57,2.68,-0.55,21.0123109818
-0.0288945138454,0.0571138039231,-1.01639091969,22.3394742012,,,,,-6.76,1.05,-1.5,21.0126750469
-0.0338460803032,0.0511979535222,-1.01055026054,22.3419041634,,,,,-4.55,0.36,-2.36,21.0130782127
-0.04622836411,0.0365174636245,-1.01031291485,22.3443300724,,,,,-2.95,1.29,-1.78,21.0134451389
-0.0550869554281,0.0252852719277,-1.03467297554,22.3467199802,,,,,-0.03,2.11,-0.1,21.0143589973
-0.0411575809121,0.0474725291133,-1.04310166836,22.3491120338,,,,,-0.76,-1.09,0.06,21.0147521496
-0.0285815484822,0.0729917734861,-1.03330683708,22.3886301517,,,,,-2.79,-4.44,-1.07,21.0151159763
-0.0421051308513,0.0635300278664,-1.01588749886,22.3910272121,,,,,-2.77,-4.07,-1.31,21.0154800415
-0.0449399352074,0.0439438968897,-1.01395368576,22.3934540749,,,,,-1.83,-2.33,-0.94,21.0158450603
-0.0339980125427,0.0499474555254,-1.03253233433,22.3958351612,,,,,1.67,1.12,1.04,21.0167500973
-0.0292095579207,0.0479973480105,-1.04843342304,22.3982319832,,,,,2.17,-3.6,2.57,21.0171430111
-0.0334865674376,0.0424125939608,-1.05107676983,22.4379501343,,,,,0.71,-5.72,2.23,21.0175080299
-0.0320738181472,0.0508415177464,-1.03760838509,22.4403581619,,,,,-0.03,-6.27,1.7,21.0178890228
-0.0337133929133,0.0652369707823,-1.03981339931,22.4427611828,,,,,1.49,-2.18,1.48,21.0182640553
-0.038696154952,0.0619223862886,-1.0542755127,22.4451901913,,,,,3.31,0.52,1.87,21.0191841125
-0.038913525641,0.0529098510742,-1.05641293526,22.4824361801,,,,,5.93,-0.46,2.15,21.0195980072
-0.0433640629053,0.0518495067954,-1.06612896919,22.4848701954,,,,,3.46,-4.38,0.52,21.0199639797
-0.054040312767,0.0579682290554,-1.06119084358,22.4872682095,,,,,2.99,-4.22,-0.3,21.0203280449
-0.0593202784657,0.069550268352,-1.03552520275,22.4896600246,,,,,3.33,-2.36,-0.66,21.0206921101
-0.0627990365028,0.0557082295418,-1.04300320148,22.4920551777,,,,,5.89,2.32,-0.31,21.0215990543
-0.0560066327453,0.0387527346611,-1.05080652237,22.5295050144,,,,,6.44,-0.41,-1.02,21.0219922066
-0.0477145910263,0.036846421659,-1.05266976357,22.5318992138,,,,,5.11,-2.36,-1.91,21.0223560333
-0.0576314777136,0.0321517437696,-1.0535749197,22.5343310833,,,,,3.92,-3.12,-2.66,21.0227200985
-0.0691851451993,0.0190405342728,-1.05418562889,22.5367240906,,,,,3.46,-0.38,-2.43,21.0231151581
-0.0650275051594,0.0214611534029,-1.04334259033,22.5391161442,,,,,4.0,1.49,-1.63,21.0240271091
-0.0520333349705,0.045292750001,-1.04667413235,22.5784790516,,,,,4.51,-0.99,-1.02,21.024420023
-0.0382296442986,0.0490748733282,-1.07854485512,22.5808730125,,,,,3.32,-3.3,-1.72,21.0247850418
-0.0386876985431,0.0441503450274,-1.08272945881,22.5833060741,,,,,1.45,-4.22,-14372264.11,21.025149107
-0.04439227283,0.0553071424365,-1.08202540874,22.585695982,,,,,3.68,1.09,-0.72,21.026086092
-0.0428480952978,0.0674793273211,-1.06361603737,22.5880820751,,,,,4.82,-1.89,-0.56,21.0264801979
-0.0593098402023,0.0659283176064,-1.05825924873,22.6285381317,,,,,2.62,-7.18,-1.86,21.0268440247
-0.0751361399889,0.051629267633,-1.05319917202,22.6309690475,,,,,1.75,-7.72,-2.22,21.0272090435
-0.0771964341402,0.0355297848582,-1.05488920212,22.6334071159,,,,,3.11,-3.51,-0.99,21.0275731087
-0.075250543654,0.0452687218785,-1.06284224987,22.6358001232,,,,,5.09,-1.15,0.04,21.0284810066
-0.0784231945872,0.043157748878,-1.05274391174,22.6724271774,,,,,6.48,-4.61,0.3,21.0288732052
-0.0816511064768,0.0403139963746,-1.04511713982,22.6748561859,,,,,4.73,-7.51,-0.45,21.0292370319
-0.0811117514968,0.0620791167021,-1.04567039013,22.6772401333,,,,,2.55,-8.6,-1.23,21.0296030045
-0.0830676704645,0.0647446662188,-1.05807197094,22.6796371937,,,,,3.73,-6.27,-0.79,21.0299670696
-0.0782893821597,0.0394489318132,-1.06729102135,22.6820280552,,,,,8.59,-1.19,0.8,21.0308990479
-0.070972263813,0.0340610146523,-1.07001793385,22.7186801434,,,,,9.14,-2.58,0.96,21.0312941074
-0.0640846937895,0.0579299032688,-1.05634343624,22.7210731506,,,,,3.74,-7.18,-0.34,21.0316581726
-0.0636142417789,0.0671828091145,-1.04760599136,22.7235050201,,,,,1.69,-7.74,-0.92,21.0320231915
-0.0609862208366,0.0636220574379,-1.03938865662,22.7259001732,,,,,3.4,-3.97,-0.7,21.0323870182
-0.0668936520815,0.0604199171066,-1.01842367649,22.7282910347,,,,,6.32,-1.45,-0.01,21.0333271027
-0.073567584157,0.055880844593,-1.017105937,22.7689330578,,,,,8.22,-2.57,0.88,21.0337200165
-0.0750390142202,0.0369256287813,-1.02567946911,22.7713260651,,,,,5.45,-4.51,0.41,21.0340840816
-0.0791629254818,0.03949803859,-1.03958690166,22.7737550735,,,,,1.29,-4.94,-0.98,21.0344481468
-0.0799921751022,0.0684051439166,-1.03271996975,22.7761499882,,,,,1.88,-2.97,-1.2,21.034812212
-0.0751852989197,0.070186458528,-1.03034591675,22.7785570621,,,,,7.78,0.91,-0.3,21.0357329845
-0.0747882649302,0.0514902770519,-1.01791024208,22.8176450729,,,,,10.23,-0.74,0.7,21.0361311436
-0.0789830461144,0.045745767653,-1.01857423782,22.8200411797,,,,,4.69,-4.51,-0.01,21.0364961624
-0.0724853351712,0.0458094850183,-1.0200612545,22.8224391937,,,,,1.19,-4.7,-0.69,21.0368599892
-0.064045496285,0.039614751935,-1.02024185658,22.8248970509,,,,,-0.74,-1.4,-0.95,21.0372240543
-0.070347443223,0.0468924790621,-1.02566385269,22.8624591827,,,,,1.35,0.29,-0.28,21.0381350517
-0.0753748342395,0.0621781125665,-1.0383528471,22.8648769855,,,,,5.19,-2.87,1.1,21.0385270119
-0.0646788105369,0.0557373017073,-1.0476487875,22.8672740459,,,,,2.62,-4.97,0.59,21.038891077
-0.0654893964529,0.0480560511351,-1.02867674828,22.8696680069,,,,,-3.89,-5.37,-0.85,21.0392541885
-0.0763787478209,0.0560964122415,-1.02132630348,22.8720610142,,,,,-4.97,-3.53,-1.0,21.0396192074
-0.0794039145112,0.0607287362218,-1.00892198086,22.9095771313,,,,,0.2,0.24,0.02,21.0405261517
-0.0790921673179,0.0712063908577,-0.998651862144,22.9119701385,,,,,6.18,-0.5,0.48,21.0409190655
-0.0757168531418,0.0761240571737,-0.997947216034,22.9144070148,,,,,3.69,-2.99,-0.76,21.0412831306
-0.0799853429198,0.0683431178331,-1.01516783237,22.9167990685,,,,,0.37,-2.93,-1.52,21.0416471958
-0.081932656467,0.0687673911452,-1.0187805891,22.9191901684,,,,,-2.36,-1.73,-1.87,21.0420110226
-0.0762006938457,0.0711780712008,-1.02643024921,22.9582622051,,,,,-1.08,1.59,-1.23,21.0429739952
-0.06808398664,0.0642174482346,-1.03624343872,22.9607200623,,,,,5.43,1.49,-0.06,21.0433712006
-0.0698332563043,0.0510132759809,-1.04812562466,22.9631700516,,,,,4.06,0.6,-0.21,21.043735981
-0.0747299343348,0.0592984184623,-1.05700719357,22.9655711651,,,,,1.06,0.29,-0.49,21.0441009998
-0.0723172649741,0.0701077729464,-1.04816973209,22.9679629803,,,,,-3.91,1.42,-0.7,21.0444641113
-0.0720897018909,0.068511672318,-1.04502868652,23.0077090263,,,,,-0.86,2.34,0.19,21.0453710556
-0.0735323503613,0.0541933327913,-1.04688334465,23.0101029873,,,,,4.48,1.28,1.21,21.0457661152
-0.0682785212994,0.0535849779844,-1.03906929493,23.0124909878,,,,,3.29,0.6,1.17,21.0461289883
-0.0691102147102,0.0704291015863,-1.02832949162,23.0149300098,,,,,1.11,1.2,0.62,21.0464940071
-0.0785807222128,0.077569231391,-1.03322994709,23.0509810448,,,,,-0.74,2.16,0.05,21.0468571186
-0.0882525146008,0.0576198846102,-1.02781355381,23.0534100533,,,,,0.45,3.4,-0.13,21.0477800369
-0.0828630924225,0.040971018374,-1.02382898331,23.05580616,,,,,4.77,1.75,1.56,21.0481710434
-0.0746376812458,0.0475901141763,-1.01752269268,23.0581970215,,,,,3.28,1.42,1.58,21.0485341549
-0.073530703783,0.0647887066007,-1.02118575573,23.0605921745,,,,,1.04,1.7,0.98,21.0488979816
-0.065198212862,0.0639948472381,-1.01495838165,23.0986351967,,,,,-1.73,3.5,-0.76,21.0492610931
-0.061418518424,0.0442668348551,-1.02113306522,23.101031065,,,,,-0.65,4.01,-1.11,21.0501711369
-0.0636294856668,0.0415734797716,-1.03436946869,23.1034631729,,,,,2.77,2.41,1.17,21.0505640507
-0.0734513923526,0.0349533781409,-1.02703928947,23.1058561802,,,,,0.77,1.38,1.92,21.0509271622
-0.0796954855323,0.0311216730624,-1.01261389256,23.1082510948,,,,,-4.42,0.61,1.42,21.0512909889
-0.0874005258083,0.0327286571264,-1.01339912415,23.1484529972,,,,,-5.25,0.84,0.48,21.0516541004
-0.0883694589138,0.0377653688192,-1.02875864506,23.1508440971,,,,,-1.85,1.11,-0.6,21.0525619984
-0.0750207975507,0.0387129113078,-1.02204310894,23.1532771587,,,,,1.04,0.41,0.21,21.0529880524
-0.0679237917066,0.0384259223938,-1.03008401394,23.1556661129,,,,,-3.91,-0.63,1.42,21.0533561707
-0.070749014616,0.0541776046157,-1.02910637856,23.1580572128,,,,,-6.74,-0.88,1.24,21.0537240505
-0.0729544833302,0.0454350113869,-1.02961921692,23.197532177,,,,,-7.1,-0.68,-0.18,21.0541181564
-0.0693098753691,0.0347919985652,-1.00306236744,23.1999731064,,,,,-4.12,-0.61,-0.77,21.0550220013
-0.0693704336882,0.0501794368029,-0.990453243256,23.2023770809,,,,,2.57,-1.17,0.02,21.0554180145
-0.0767471566796,0.0615038499236,-0.975148081779,23.2048079967,,,,,0.64,-1.46,0.89,21.0557820797
-0.0748474150896,0.0375818088651,-0.99322283268,23.2409040928,,,,,-3.95,-1.97,1.53,21.0561461449
-0.0720409378409,0.0301106888801,-1.0163230896,23.2433331013,,,,,-4.02,-1.94,1.24,21.0565090179
-0.069556593895,0.052235506475,-1.03165793419,23.2457311153,,,,,4.28,-2.44,1.25,21.0574162006
-0.0641096532345,0.0369884446263,-1.03153026104,23.2481241226,,,,,5.22,-2.7,2.32,21.0578100681
-0.059662476182,0.0285363737494,-1.04822874069,23.2505161762,,,,,0.2,-3.35,4.93,21.0581719875
-0.0590565949678,0.0417983904481,-1.05181622505,23.2890250683,,,,,-2.93,-3.66,5.35,21.0585360527
-0.0609332248569,0.044945217669,-1.04439795017,23.2914190292,,,,,-3.6,-3.77,3.72,21.0589010715
-0.0695909261703,0.0311870854348,-1.02489793301,23.2938530445,,,,,-1.12,-3.44,2.5,21.0598080158
-0.0838010013103,0.0318498834968,-1.02548789978,23.2962460518,,,,,3.23,-1.4,1.89,21.0601990223
-0.0858643352985,0.0346191897988,-1.00991654396,23.2986412048,,,,,0.49,-0.84,2.69,21.0605630875
-0.0816696509719,0.0282697957009,-1.01411926746,23.3384029865,,,,,-4.4,-1.43,2.66,21.0609271526
-0.0853289738297,0.0243969690055,-1.0138310194,23.3407981396,,,,,-4.13,-2.04,1.61,21.061289072
-0.0817262604833,0.0392652377486,-0.995619893074,23.3432321548,,,,,1.29,-1.98,-0.59,21.0622000694
-0.0709745883942,0.0444883704185,-0.985323548317,23.3456289768,,,,,4.15,0.08,-0.28,21.0625920296
-0.0721599012613,0.0236728359014,-0.999114513397,23.3480250835,,,,,-1.35,1.95,1.8,21.0629901886
-0.0764887705445,0.01503428258,-1.00090384483,23.3864531517,,,,,-4.06,1.56,2.15,21.0633561611
-0.0812848210335,0.0254345107824,-0.995554208755,23.3888411522,,,,,-3.27,-0.67,1.2,21.0637199879
-0.0915063619614,0.0322064161301,-0.983752608299,23.3912341595,,,,,-0.48,-1.47,0.72,21.0646250248
-0.102327890694,0.0319926068187,-0.979133963585,23.3936641216,,,,,2.22,0.55,2.06,21.0650420189
-0.0967352241278,0.0427642092109,-0.983219861984,23.4295661449,,,,,-0.9,1.76,2.9,21.0654079914
-0.0913126021624,0.0433425828815,-0.968801259995,23.4319620132,,,,,-6.5,1.9,2.97,21.0657730103
-0.0890547037125,0.030614471063,-0.967269480228,23.4343941212,,,,,-6.3,0.87,2.27,21.0661489964
-0.0794594585896,0.0320925712585,-0.979684948921,23.4367871284,,,,,-1.42,-0.7,1.18,21.0670762062
-0.0763222873211,0.0463595315814,-0.986941456795,23.4391801357,,,,,2.07,-0.01,1.38,21.0674672127
-0.0751637518406,0.066110894084,-0.971637427807,23.4786801338,,,,,-1.8,1.68,2.01,21.0678331852
-0.0787081047893,0.0535789132118,-0.948426127434,23.4810721874,,,,,-4.05,1.71,1.65,21.0681970119
-0.0815389156342,0.0339399278164,-0.92454123497,23.4835100174,,,,,-4.83,1.11,0.84,21.0685610771
-0.0801175311208,0.0281301308423,-0.930944144726,23.4859061241,,,,,-1.67,-0.05,-0.87,21.0694692135
-0.0889275819063,0.010452946648,-0.942246794701,23.4882950783,,,,,2.91,0.81,-0.81,21.069863081
-0.0847109481692,0.0199591200799,-0.958450913429,23.5288321972,,,,,1.43,1.25,-0.2,21.0702280998
-0.0841461569071,0.0330846756697,-0.956372737885,23.5312252045,,,,,-2.07,0.41,0.13,21.0705912113
-0.0798193141818,0.0367125421762,-0.965509295464,23.533654213,,,,,-2.14,-0.4,-0.2,21.0709559917
-0.0731510221958,0.0451738908887,-0.953749716282,23.5360460281,,,,,0.79,-0.55,-0.71,21.0718641281
-0.0879591777921,0.039799131453,-0.952153623104,23.5384371281,,,,,2.52,1.56,0.12,21.0722560883
-0.0975302532315,0.0303750280291,-0.943616092205,23.5761060715,,,,,-0.79,2.69,1.72,21.0726201534
-0.0873395502567,0.0279670003802,-0.938027203083,23.5784990788,,,,,-2.49,1.83,1.91,21.0730261803
-0.0766688585281,0.0251868646592,-0.953352510929,23.5808889866,,,,,-2.77,0.39,1.46,21.0733931065
-0.0684308707714,0.0220728646964,-0.960918188095,23.5833220482,,,,,-0.05,-0.97,-0.05,21.0743031502
-0.0683830231428,0.010558443144,-0.959490537643,23.6201012135,,,,,1.08,3.94,-0.38,21.074696064
-0.0803141519427,0.0148591119796,-0.956645429134,23.6224961281,,,,,-1.18,5.39,-0.13,21.0750610828
-0.0831344723701,0.0334585309029,-0.973958432674,23.6249201298,,,,,-3.44,5.38,-0.3,21.0754270554
-0.0843489170074,0.0308667067438,-0.971618175507,23.6273121834,,,,,-3.96,2.14,-1.98,21.0757911205
-0.0895376875997,0.0266470070928,-0.971906781197,23.6297211647,,,,,-2.62,0.76,-2.73,21.0767481327
-0.0851702317595,0.020127819851,-0.963133573532,23.6689641476,,,,,-1.04,3.95,-2.07,21.0771520138
-0.0811594650149,0.0252108741552,-0.962990820408,23.6713600159,,,,,-2.71,6.37,-1.57,21.0775179863
-0.0800942629576,0.0338020324707,-0.957013249397,23.6737911701,,,,,-6.26,7.43,-2.07,21.0778830051
-0.0810628384352,0.02360936068,-0.978922247887,23.6761870384,,,,,-6.17,5.8,-2.94,21.0782470703
-0.0790463164449,0.0266181398183,-0.982980489731,23.6785759926,,,,,-3.08,1.92,-3.65,21.0791561604
-0.0839721113443,0.0296370033175,-0.962338328362,23.7179841995,,,,,-1.72,3.82,-0.98,21.0795490742
-0.0912949889898,0.0281628016382,-0.954400420189,23.7203741074,,,,,-3.21,5.36,-0.38,21.0799109936
-0.0929473042488,0.0280476119369,-0.95029103756,23.722769022,,,,,-4.84,5.89,-0.39,21.0802760124
-0.0900840684772,0.0155342612416,-0.958117485046,23.7251989841,,,,,-4.78,3.48,-1.55,21.0806400776
-0.0978867933154,-0.0055007012561,-0.969568550587,23.7623991966,,,,,-3.29,1.81,-1.72,21.081564188
-0.102194584906,0.00437132827938,-0.972052693367,23.7648370266,,,,,0.31,1.39,0.38,21.0819571018
-0.0947901308537,0.0287976618856,-0.968169987202,23.7672309875,,,,,-0.17,2.42,1.11,21.082321167
-0.0929289609194,0.0183741059154,-0.981256842613,23.7696239948,,,,,-2.44,2.7,1.29,21.0826849937
-0.0920333787799,0.00899553857744,-0.982141852379,23.7720150948,,,,,-2.74,1.7,0.94,21.083081007
-0.0889029800892,0.0171474758536,-0.978694677353,23.8092541695,,,,,-1.33,-0.14,0.88,21.0839920044
-0.0831630453467,0.0175349283963,-0.969730734825,23.8116431236,,,,,-0.36,0.34,1.77,21.0843851566
-0.0769631266594,0.00966608710587,-0.991125464439,23.8140711784,,,,,-1.44,1.57,2.1,21.0847480297
-0.0782027244568,0.00900520198047,-1.00507032871,23.8164660931,,,,,-2.01,1.26,1.74,21.0851111412
-0.0876431688666,0.0108674354851,-1.01508712769,23.8188550472,,,,,-0.92,-0.6,0.51,21.0854752064
-0.0922685414553,0.0105922352523,-1.00821053982,23.8598380089,,,,,0.28,-1.15,0.21,21.0863862038
-0.0851019918919,0.022741002962,-1.00871658325,23.8622341156,,,,,-0.61,1.03,1.11,21.0867781639
-0.07832865417,0.0372138619423,-0.998301267624,23.8646700382,,,,,-1.88,1.83,1.18,21.0871419907
-0.0788256973028,0.0469324439764,-1.00452244282,23.8670611382,,,,,-1.98,1.17,-0.03,21.0875041485
-0.0781161934137,0.0545334964991,-0.989685893059,23.8694531918,,,,,0.08,0.08,-1.12,21.0878682137
-0.0812710076571,0.0379216447473,-0.981386423111,23.9082632065,,,,,3.82,-0.86,-2.13,21.0888051987
-0.0883888378739,0.0181077364832,-1.00110626221,23.9106562138,,,,,1.45,1.06,-1.09,21.0891971588
-0.100087895989,0.000239502638578,-1.03057217598,23.9130861759,,,,,-4.03,3.29,-0.73,21.0895609856
-0.103193670511,-0.00294273439795,-1.03200936317,23.91548419,,,,,-4.74,3.24,-1.52,21.0899250507
-0.0948492214084,0.0100405178964,-1.01542878151,23.9524261951,,,,,-1.21,1.67,-3.86,21.0902900696
-0.0850155577064,0.0133866649121,-1.00078034401,23.9548590183,,,,,0.77,1.07,-4.28,21.0911960602
-0.088474355638,0.0254065189511,-0.980026960373,23.9572491646,,,,,-3.81,3.18,-1.75,21.0915880203
-0.0878413319588,0.0256117302924,-0.954070150852,23.9596431255,,,,,-6.99,4.28,-1.33,21.0919539928
-0.0838250368834,0.0231567751616,-0.947741031647,23.962033987,,,,,-8.85,4.84,-2.79,21.0923171043
-0.0843094438314,0.0287880916148,-0.948399066925,23.9987649918,,,,,-6.89,4.42,-3.98,21.0926821232
-0.0881359651685,0.0278571005911,-0.954437553883,24.0011610985,,,,,-2.26,3.71,-4.11,21.0936231613
-0.0912748649716,0.0300136003643,-0.965192615986,24.0036101341,,,,,-3.54,4.42,-1.18,21.0940170288
-0.085597127676,0.0262307617813,-0.977470874786,24.0060060024,,,,,-8.47,4.78,0.57,21.094381094
-0.0899735838175,0.0238266196102,-0.999135971069,24.0083861351,,,,,-9.58,4.4,0.3,21.0947451591
-0.0984749495983,0.0268815960735,-1.00810050964,24.0490510464,,,,,-8.9,3.78,-0.39,21.095110178
-0.100552350283,0.0230833459646,-1.00605046749,24.0514400005,,,,,-4.57,3.24,-0.66,21.0960190296
-0.0969325751066,0.0242069941014,-0.991721868515,24.0538752079,,,,,-3.19,4.55,2.22,21.0964121819
-0.0845842212439,0.0391302406788,-0.987502574921,24.0562701225,,,,,-4.72,4.37,2.58,21.0967760086
-0.0857946574688,0.0292879249901,-0.96361386776,24.0586631298,,,,,-6.58,2.58,1.52,21.0971410275
-0.0907872617245,0.0151329953223,-0.972357273102,24.0976769924,,,,,-6.11,1.86,0.8,21.0975031853
-0.0886947959661,0.0120908301324,-0.97768676281,24.1000671387,,,,,-3.35,2.36,0.59,21.0984110832
-0.0955370366573,0.0099241938442,-0.995105266571,24.102460146,,,,,-2.25,4.58,1.53,21.098803997
-0.0969142764807,0.0129132680595,-1.00507855415,24.1048901081,,,,,-2.78,4.32,1.27,21.0991661549
-0.090374365449,0.0223608482629,-1.02983379364,24.1424400806,,,,,-2.84,3.06,0.59,21.0995550156
-0.0912299901247,0.0301614347845,-1.02042412758,24.1448740959,,,,,-2.44,1.78,-0.12,21.0999200344
-0.0998264178634,0.0250661615282,-1.01098418236,24.1472680569,,,,,-1.13,1.22,-0.45,21.1008281708
-0.103967964649,0.0275237429887,-1.00654697418,24.149682045,,,,,-2.44,4.23,1.13,21.101224184
-0.0987006947398,0.032365091145,-1.00660943985,24.1520860195,,,,,-2.55,4.0,1.01,21.1015911102
-0.0958888977766,0.0232922378927,-1.01868867874,24.1887111664,,,,,-1.64,2.89,0.33,21.1019539833
-0.0905024856329,0.0220430064946,-0.998514533043,24.191106081,,,,,2.15,0.77,-1.76,21.1023170948
-0.100105464458,0.0423824712634,-0.977580308914,24.1935300827,,,,,3.32,2.18,-2.22,21.1032590866
-0.106150090694,0.0377559587359,-0.986332654953,24.1959211826,,,,,-0.75,5.47,-1.1,21.1036541462
-0.0866756439209,0.0315341949463,-0.992062330246,24.1984050274,,,,,-2.77,5.96,-0.91,21.1040182114
-0.0821833908558,0.0268880333751,-1.01209771633,24.2382171154,,,,,-1.29,3.75,-2.37,21.1043820381
-0.0979119688272,0.021462066099,-1.02371752262,24.2406070232,,,,,1.41,2.52,-3.42,21.1047451496
-0.106930986047,0.0299696940929,-1.01277935505,24.2430410385,,,,,4.98,2.69,-3.77,21.1056501865
-0.0919567272067,0.0586649775505,-1.00207591057,24.2454380989,,,,,-2.3,6.79,-0.97,21.1060421467
-0.0845877826214,0.0655665621161,-0.995219349861,24.2478301525,,,,,-4.19,6.4,-1.18,21.1064071655
-0.0925096273422,0.0432826802135,-1.00963675976,24.2877020836,,,,,-3.73,5.07,-2.26,21.1067709923
-0.0839611887932,0.035816848278,-1.01107656956,24.2900869846,,,,,2.37,2.45,-4.75,21.1071350574
-0.0937368646264,0.0429705530405,-0.99608027935,24.2924740314,,,,,5.08,2.42,-4.84,21.1080391407
-0.111663818359,0.044610388577,-0.987226605415,24.2949080467,,,,,0.13,5.99,-0.86,21.1084320545
-0.105448260903,0.0405028164387,-0.989872336388,24.330974102,,,,,-4.11,6.1,-0.14,21.1087970734
-0.0880541875958,0.0383974090219,-1.0077457428,24.3334050179,,,,,-7.09,3.71,-1.29,21.1091611385
-0.0966649875045,0.0358613952994,-1.01348769665,24.3357989788,,,,,-5.31,2.49,-2.09,21.1095271111
-0.105101436377,0.0494328290224,-1.04655134678,24.3381900787,,,,,0.14,2.86,-1.56,21.1104331017
-0.0964400395751,0.0519177690148,-1.05125546455,24.3405771255,,,,,-6.2,3.17,0.87,21.1108891964
-0.0981509536505,0.0474481508136,-1.0407140255,24.3785450459,,,,,-1.22,5.34,1.19,21.1112840176
-0.101012222469,0.0432118698955,-1.04992735386,24.3809370995,,,,,-1.02,1.3,0.77,21.1116480827
-0.105988353491,0.0272891130298,-1.06368148327,24.3833680153,,,,,-1.3,-0.16,0.39,21.1120131016
-0.0974289625883,0.0461163446307,-1.07730484009,24.385751009,,,,,-1.79,-0.07,0.11,21.112375021
-0.0929553434253,0.0671136528254,-1.06500184536,24.3881430626,,,,,-2.44,3.69,-0.21,21.1133191586
-0.117457643151,0.0580395683646,-1.05610764027,24.4287221432,,,,,-0.08,4.89,-1.18,21.113713026
-0.139152258635,0.0484595969319,-1.04514157772,24.4311110973,,,,,1.48,2.97,-1.76,21.1140770912
-0.138215571642,0.0447322353721,-1.03870499134,24.4335319996,,,,,2.9,1.26,-2.22,21.1144411564
-0.12192350626,0.0469710826874,-1.05346870422,24.4359221458,,,,,3.39,1.52,-2.4,21.1148049831
-0.108633190393,0.0595958530903,-1.05105388165,24.4383111,,,,,2.05,3.37,-2.31,21.1157131195
-0.0987640917301,0.065210185945,-1.04938769341,24.4774692059,,,,,-1.53,5.87,-3.7,21.1161050797
-0.100003831089,0.0583788529038,-1.04304814339,24.4798600674,,,,,-0.58,4.64,-4.52,21.1164691448
-0.0996178239584,0.0635495185852,-1.04404187202,24.4822471142,,,,,3.72,2.53,-4.95,21.1168320179
-0.0897185653448,0.0708640664816,-1.04735422134,24.4846739769,,,,,5.25,2.95,-4.43,21.1171960831
-0.0819011181593,0.0610524043441,-1.02461206913,24.5207321644,,,,,3.07,5.49,-3.41,21.1181051731
-0.0906426981091,0.0718183144927,-1.01481413841,24.5231561661,,,,,-2.37,5.38,-4.64,21.1184980869
-0.0991329774261,0.0801965743303,-1.01983606815,24.5255470276,,,,,-3.87,2.54,-6.32,21.1188631058
-0.0977088212967,0.0712953954935,-1.04927420616,24.5279340744,,,,,-2.22,1.68,-6.24,21.1192271709
-0.088318862021,0.0744344368577,-1.06932711601,24.5303180218,,,,,1.85,2.89,-4.29,21.1195909977
-0.0789874047041,0.08570741117,-1.06255626678,24.5693321228,,,,,2.11,3.85,-3.38,21.1205101013
-0.0851070135832,0.0881366059184,-1.07067108154,24.5717201233,,,,,-4.65,1.41,-4.13,21.1209020615
-0.0959739238024,0.0740651711822,-1.05380642414,24.5741550922,,,,,-6.15,-0.56,-4.41,21.1212670803
-0.111375063658,0.0650434717536,-1.04610931873,24.5765421391,,,,,-3.34,-1.87,-2.6,21.1216289997
-0.11355753243,0.0729193165898,-1.04235553741,24.5789291859,,,,,0.05,-0.86,-0.86,21.1219940186
-0.089092746377,0.0773218646646,-1.02451395988,24.6195380688,,,,,4.37,1.29,1.75,21.1229600906
-0.074255079031,0.0746511518955,-1.03520846367,24.6219241619,,,,,2.48,-0.46,1.48,21.1233541965
-0.0826883465052,0.0753503441811,-1.0275580883,24.6243510246,,,,,-0.29,-4.0,0.7,21.1237180233
-0.0948830395937,0.0873135253787,-1.01144361496,24.6267352104,,,,,0.53,-4.43,0.82,21.1240820885
-0.0820078104734,0.0903720483184,-1.0195530653,24.6291220188,,,,,5.68,-1.89,1.66,21.1244471073
-0.0789138004184,0.0752117410302,-1.03730106354,24.6664700508,,,,,7.89,-0.25,1.84,21.1253561974
-0.0824369341135,0.058920994401,-1.04406201839,24.668859005,,,,,7.03,-1.78,0.23,21.1257500648
-0.0814289450645,0.0546023771167,-1.02789461613,24.6712470055,,,,,5.42,-3.47,-0.32,21.12611413
-0.0780932456255,0.0578794702888,-1.00977730751,24.6736750603,,,,,4.22,-4.41,-0.77,21.1264781952
-0.0848703756928,0.0665741413832,-1.01134419441,24.7107951641,,,,,4.63,-3.24,-0.63,21.126843214
-0.0874184966087,0.0610830932856,-1.01320874691,24.7132160664,,,,,5.93,-0.79,-0.06,21.1277492046
-0.081181935966,0.0667328983545,-1.02263605595,24.7156062126,,,,,6.63,-2.31,0.59,21.1281430721
-0.0654440298676,0.0994015336037,-1.03897309303,24.7180051804,,,,,5.96,-5.33,1.36,21.1285111904
-0.0563520863652,0.107477456331,-1.04047262669,24.720413208,,,,,4.76,-5.71,1.68,21.1288762093
-0.0583266690373,0.086618475616,-1.02667891979,24.7586381435,,,,,2.01,-3.91,1.92,21.129240036
-0.0596510320902,0.0753581821918,-1.01889324188,24.7610220909,,,,,1.1,-2.94,1.91,21.1301491261
-0.0749872177839,0.0755527690053,-1.01290714741,24.7634501457,,,,,4.57,-4.66,1.68,21.1305420399
-0.073233038187,0.0801768749952,-1.01058733463,24.7658390999,,,,,5.81,-5.4,1.73,21.130906105
-0.054365709424,0.0795217677951,-1.01575613022,24.768228054,,,,,4.66,-4.4,1.47,21.1312711239
-0.0535698086023,0.0868963226676,-1.01200044155,24.8089020252,,,,,2.42,-3.01,1.07,21.1316351891
-0.0722373723984,0.0926204249263,-1.00764262676,24.8112850189,,,,,-1.53,-1.32,-0.21,21.132543087
-0.0801020339131,0.0756791904569,-0.989047527313,24.8137090206,,,,,-0.07,-2.36,-1.11,21.1329891682
-0.0711001083255,0.0662771090865,-1.00603044033,24.8160991669,,,,,2.89,-2.79,-0.62,21.1333551407
-0.0645282715559,0.069271504879,-1.01485550404,24.818488121,,,,,2.79,-1.94,-0.27,21.1337511539
-0.0621044114232,0.0759423673153,-1.02415943146,24.8561680317,,,,,1.31,-0.76,-0.15,21.1341161728
-0.0612304285169,0.0721448659897,-1.01760363579,24.8585541248,,,,,-3.55,0.63,-0.99,21.1350290775
-0.0685823336244,0.0724660381675,-1.00981783867,24.8609411716,,,,,-5.74,-0.68,-1.61,21.1354219913
-0.0738876014948,0.0832230970263,-1.0158624649,24.8633670807,,,,,-4.66,-0.77,-0.9,21.1357860565
-0.0777398645878,0.0818889290094,-1.02568161488,24.8996241093,,,,,-3.54,-0.41,-0.12,21.1361510754
-0.0733178108931,0.0667837560177,-1.03678238392,24.9020140171,,,,,-2.31,0.35,0.23,21.1365141869
-0.0628534033895,0.0549582391977,-1.03202819824,24.904430151,,,,,-3.64,-0.06,-1.09,21.1374230385
-0.0615172162652,0.0577776879072,-1.02510130405,24.9068200588,,,,,-4.86,-0.91,-1.54,21.1378071308
-0.0663004815578,0.069426715374,-1.00521469116,24.9092071056,,,,,-3.5,-0.47,-0.05,21.138171196
-0.0791978612542,0.0817670673132,-1.00744450092,24.94860816,,,,,-1.88,-0.23,0.59,21.1385350227
-0.0763055682182,0.0833965837955,-1.01553463936,24.9509971142,,,,,0.02,-0.28,0.77,21.1389009953
-0.0655109509826,0.0778043419123,-1.01093769073,24.9534201622,,,,,3.25,-1.28,-0.25,21.1398081779
-0.0668204277754,0.0715518891811,-1.00581812859,24.9558081627,,,,,3.52,-1.37,-0.69,21.1402001381
-0.0731974393129,0.0725794732571,-0.992109775543,24.9581961632,,,,,3.05,-0.48,-0.2,21.1405651569
-0.0699162483215,0.0848358944058,-0.994295835495,24.9981050491,,,,,2.54,0.32,0.23,21.1409270763
-0.0666415765882,0.0841116383672,-1.00091230869,25.0004930496,,,,,3.32,0.42,-0.02,21.1412951946
-0.0682227164507,0.0735274106264,-1.0099722147,25.0029141903,,,,,6.05,-1.3,-1.06,21.1421880722
-0.0596434623003,0.0657345056534,-1.01114821434,25.0053060055,,,,,7.44,-1.87,-1.11,21.1425821781
-0.0587709918618,0.0754623636603,-1.00123989582,25.0076930523,,,,,6.82,-1.21,-0.82,21.1429781914
-0.0605089813471,0.081937931478,-1.00414431095,25.0461940765,,,,,3.6,0.21,-0.62,21.1433451176
-0.0626320317388,0.0780111700296,-1.00079452991,25.0485830307,,,,,2.81,-0.02,-1.02,21.1437091827
-0.0677791982889,0.0731065869331,-0.997547507286,25.0509719849,,,,,5.03,-2.06,-2.09,21.144618988
-0.0645289421082,0.084782011807,-1.01234400272,25.053399086,,,,,10.53,-2.54,-1.5,21.1450331211
-0.051447160542,0.0940197557211,-1.01100838184,25.0894861221,,,,,9.63,-1.56,-0.83,21.1453971863
-0.0597892999649,0.080336458981,-1.0109064579,25.0918741226,,,,,7.4,-0.84,-0.37,21.145761013
-0.0680401027203,0.0804859623313,-1.01235735416,25.0943000317,,,,,3.51,-1.61,-0.64,21.1461219788
-0.0673613995314,0.0734926834702,-1.02255892754,25.0966880322,,,,,3.91,-2.58,-1.19,21.146998167
-0.0639472156763,0.0716592818499,-1.0473972559,25.099075079,,,,,9.89,-1.94,-0.94,21.1473920345
-0.06103631109,0.0659774392843,-1.05941796303,25.1386091709,,,,,9.92,-0.57,0.0,21.147755146
-0.0584054663777,0.0635518804193,-1.05405759811,25.140994072,,,,,4.23,0.29,1.72,21.1481192112
-0.0523055195808,0.0797063037753,-1.02588737011,25.143419981,,,,,1.04,-0.97,1.82,21.1484830379
-0.0607300400734,0.0754929184914,-1.03091859818,25.1458079815,,,,,-0.38,-4.01,0.82,21.1493911743
-0.0516266301274,0.0684522390366,-1.04627537727,25.1481940746,,,,,3.31,-3.25,0.49,21.1497850418
-0.0447167977691,0.0735222920775,-1.04612088203,25.1883010864,,,,,4.65,0.31,1.1,21.1501481533
-0.0567652955651,0.0805442333221,-1.02443766594,25.1906909943,,,,,2.76,1.03,1.08,21.1505100727
-0.0705939382315,0.0766321867704,-1.020008564,25.193116188,,,,,-1.95,-1.26,-0.73,21.1508741379
-0.075622677803,0.0683567747474,-1.03018569946,25.19551301,,,,,-2.94,-2.87,-1.93,21.1517829895
-0.062866024673,0.0696638375521,-1.05634593964,25.2323360443,,,,,-0.01,-1.74,-2.07,21.1521751881
-0.0539519190788,0.0761881768703,-1.06560623646,25.2347700596,,,,,1.02,0.13,-1.32,21.1525390148
-0.0621981695294,0.076298378408,-1.08314239979,25.2371470928,,,,,-0.07,1.68,-0.77,21.1529321671
-0.0523339956999,0.0775036886334,-1.07099640369,25.2395341396,,,,,-1.29,0.81,-1.29,21.1532981396
-0.0465714111924,0.0744459331036,-1.0598988533,25.2419211864,,,,,-2.14,-1.73,-2.09,21.1542069912
-0.0594297647476,0.0670898854733,-1.04348671436,25.2786381245,,,,,-0.72,-1.67,-0.43,21.1545991898
-0.0607250481844,0.0668583139777,-1.04134380817,25.2810270786,,,,,0.92,-0.35,1.83,21.1549630165
-0.0556769147515,0.0778062492609,-1.04274344444,25.2834560871,,,,,0.83,-0.33,2.27,21.1553280354
-0.0467457324266,0.0874058902264,-1.04309129715,25.2858409882,,,,,0.71,-1.92,1.44,21.1556921005
-0.0486755818129,0.0813399851322,-1.04253792763,25.2882289886,,,,,1.18,-2.48,0.92,21.1566150188
-0.0532818287611,0.0624917894602,-1.01244711876,25.3292300701,,,,,3.29,-0.72,1.28,21.1570100784
-0.0628246590495,0.0582097992301,-1.00320696831,25.3316140175,,,,,3.06,-0.19,1.48,21.1573731899
-0.0656719356775,0.0632734969258,-1.01358401775,25.3341190815,,,,,1.17,-1.17,0.95,21.1577391624
-0.05799305439,0.063461586833,-1.04766392708,25.3365120888,,,,,0.71,-2.24,0.42,21.1581020355
-0.0480440557003,0.0743690729141,-1.04251301289,25.3389010429,,,,,4.45,-1.61,0.45,21.1590111256
-0.0475114956498,0.0943445339799,-1.03860998154,25.3777770996,,,,,5.46,-0.27,0.89,21.1594071388
-0.0478991866112,0.0988884791732,-1.04976475239,25.3801691532,,,,,3.82,0.69,0.94,21.1597721577
-0.0499221459031,0.0881955549121,-1.05446529388,25.3825590611,,,,,1.4,-0.25,0.45,21.1601359844
-0.0517533048987,0.0644037947059,-1.05885469913,25.3849861622,,,,,-0.63,-1.69,-0.22,21.1604990959
-0.0419583395123,0.065657146275,-1.04373216629,25.4224870205,,,,,0.27,-3.23,-0.93,21.1614210606
-0.0328866317868,0.0669324472547,-1.04039645195,25.4249110222,,,,,2.81,-2.34,-0.62,21.1617770195
-0.0306203011423,0.0668019130826,-1.04202628136,25.4272971153,,,,,6.99,0.64,0.33,21.1621251106
-0.0266236923635,0.0752802863717,-1.04003560543,25.4296810627,,,,,6.58,1.16,0.41,21.16248703
-0.0373718291521,0.0751820877194,-1.05123150349,25.4320600033,,,,,1.06,-1.04,-0.54,21.1628911495
-0.0532263293862,0.06073564291,-1.05699646473,25.4690880775,,,,,-1.27,-2.58,-1.16,21.1632611752
-0.0484636127949,0.0512917935848,-1.07051968575,25.4714741707,,,,,-0.15,-2.88,-0.97,21.1641910076
-0.0511448979378,0.0510048866272,-1.06307375431,25.4738969803,,,,,5.67,-0.02,0.61,21.1645820141
-0.0668595284224,0.0388815104961,-1.0773024559,25.4762840271,,,,,6.41,-0.09,0.95,21.1649470329
-0.0657412782311,0.0460313111544,-1.09454727173,25.4786741734,,,,,3.87,-1.74,0.28,21.1653120518
-0.043497979641,0.0707305669785,-1.09380745888,25.5184090137,,,,,0.7,-3.45,-0.57,21.1656780243
-0.0467959344387,0.0620395690203,-1.06115853786,25.5207941532,,,,,-2.0,-4.04,-1.13,21.1665861607
-0.0624252557755,0.0536171123385,-1.03612101078,25.5235362053,,,,,4.22,0.56,0.42,21.1669771671
-0.0633819103241,0.071113973856,-1.04996061325,25.5259251595,,,,,5.05,0.31,0.15,21.1673400402
-0.0475322082639,0.0707427561283,-1.05451989174,25.5283100605,,,,,4.03,-1.13,-0.69,21.1677041054
-0.0325023233891,0.0466327294707,-1.07517564297,25.5681681633,,,,,-0.45,-4.34,-2.44,21.1680700779
-0.0379993543029,0.0461181774735,-1.10043358803,25.5705900192,,,,,-1.43,-4.42,-2.44,21.2034430504
-0.0576876699924,0.0624436736107,-1.13338637352,25.5730350018,,,,,3.49,0.35,0.31,21.2038340569
-0.0640143603086,0.0737181976438,-1.14863443375,25.5754330158,,,,,4.64,0.66,0.69,21.2041990757
-0.0646111145616,0.0710718333721,-1.16315317154,25.6111280918,,,,,3.18,-2.29,-0.22,21.2045631409
-0.064024746418,0.0711520090699,-1.18229472637,25.6135671139,,,,,1.77,-4.06,-0.78,21.204927206
-0.0648688971996,0.0846808478236,-1.18950927258,25.615956068,,,,,2.44,-4.26,-0.35,21.2058370113
-0.0632467567921,0.0838412642479,-1.19910490513,25.6183450222,,,,,7.12,-0.36,1.64,21.2062292099
-0.0678086131811,0.0642340555787,-1.2100123167,25.620732069,,,,,6.71,-0.83,1.45,21.2065930367
-0.0729724615812,0.067865550518,-1.22313380241,25.658616066,,,,,5.47,-2.36,0.87,21.2069571018
-0.0685293972492,0.0651335120201,-1.23684442043,25.6610050201,,,,,4.28,-5.38,-0.03,21.2073221207
-0.0592402145267,0.0725396573544,-1.22030341625,25.6634480953,,,,,5.76,-5.57,0.01,21.2082290649
-0.0323847308755,0.104882314801,-1.21590721607,25.6658380032,,,,,10.01,-2.27,1.32,21.2086210251
-0.0328108966351,0.103663273156,-1.20485639572,25.6682140827,,,,,8.59,-2.2,1.46,21.2089860439
-0.0617365092039,0.0956609845161,-1.19537746906,25.7087152004,,,,,3.9,-4.35,1.02,21.2093501091
-0.0692855864763,0.0827270969748,-1.18107223511,25.7111082077,,,,,2.98,-5.31,0.78,21.2097151279
-0.0519996732473,0.0867790654302,-1.19839942455,25.7135310173,,,,,5.82,-4.63,0.74,21.2106211185
-0.0478644520044,0.0862786620855,-1.20462119579,25.7159171104,,,,,8.33,-2.29,1.25,21.2110140324
-0.041246548295,0.0893816500902,-1.19051516056,25.7183060646,,,,,4.2,-2.85,1.53,21.2113771439
-0.0375403761864,0.104090698063,-1.18523430824,25.757846117,,,,,1.54,-3.94,1.34,21.2117400169
-0.0631661191583,0.0949084609747,-1.21801805496,25.7602431774,,,,,0.44,-4.5,0.76,21.2121040821
-0.0575220137835,0.096492998302,-1.2605266571,25.7650721073,,,,,2.67,-3.5,0.54,21.2130391598
-0.0607368424535,0.0813960507512,-1.24237668514,25.8023359776,,,,,7.44,-0.76,0.63,21.2134339809
-0.0658316910267,0.0674090906978,-1.23612999916,25.8047690392,,,,,5.59,-1.58,0.58,21.2137989998
-0.0560313388705,0.0599400252104,-1.22138774395,25.8071579933,,,,,0.4,-3.93,0.04,21.2486569881
-0.0204519480467,0.0805684253573,-1.19011712074,25.8095459938,,,,,-0.73,-4.09,-0.25,21.2490231991
-0.0227794088423,0.0839325934649,-1.17142617702,25.8119301796,,,,,2.03,-1.94,-0.98,21.2499320507
-0.0339576750994,0.0712021887302,-1.1699205637,25.8493959904,,,,,4.39,0.03,-1.96,21.2503261566
-0.0557132810354,0.0668922811747,-1.15671133995,25.8517901897,,,,,-0.11,-1.14,-3.42,21.2506911755
-0.0656855031848,0.0738104730844,-1.13336157799,25.8542160988,,,,,-3.3,-2.18,-3.96,21.251057148
-0.0573657900095,0.0795036554337,-1.12944352627,25.8566040993,,,,,-5.91,-2.7,-3.89,21.2514221668
-0.0557385012507,0.0885458886623,-1.11982107162,25.8589911461,,,,,-4.42,-2.05,-3.54,21.2523272038
-0.0609814822674,0.0852233245969,-1.0853433609,25.8982870579,,,,,-0.27,-0.26,-3.25,21.2527201176
-0.0631123036146,0.0700734108686,-1.07350575924,25.900676012,,,,,-1.61,-0.42,-3.4,21.2531201839
-0.0545276403427,0.0667290985584,-1.07907414436,25.9031121731,,,,,-4.73,-1.22,-2.87,21.2534880638
-0.0443433523178,0.0671458691359,-1.07837343216,25.9055011272,,,,,-4.47,-1.31,-2.08,21.2538540363
-0.034182973206,0.0652116760612,-1.09015119076,25.9078910351,,,,,0.13,-1.09,-0.74,21.2547631264
-0.0351502746344,0.0723906829953,-1.07853043079,25.9477460384,,,,,3.03,-0.8,-0.62,21.2551560402
-0.0577495992184,0.0791088715196,-1.06397211552,25.950138092,,,,,0.61,-0.86,-0.99,21.2555201054
-0.0591369122267,0.0872619077563,-1.04043674469,25.9525251389,,,,,-0.57,-0.81,-0.88,21.2558841705
-0.0515144392848,0.0905824452639,-1.03845250607,25.9549469948,,,,,-0.5,-0.65,-0.6,21.2562479973
-0.0524467304349,0.065895408392,-1.06626880169,25.9909191132,,,,,2.34,-0.47,-0.3,21.257158041
-0.0447090044618,0.0633791387081,-1.08550882339,25.9933390617,,,,,1.14,-1.26,-1.06,21.2575511932
-0.0308794695884,0.0933858007193,-1.06999886036,25.9957280159,,,,,-1.03,-1.53,-1.09,21.2579162121
-0.0420552194118,0.106491856277,-1.04814374447,25.9981660843,,,,,-2.1,-1.52,-0.48,21.2582790852
-0.0425206571817,0.0860508084297,-1.02985572815,26.000549078,,,,,-0.77,-1.22,-0.13,21.2586431503
-0.0354630425572,0.0597597360611,-1.05106270313,26.0386300087,,,,,2.03,-1.06,-0.26,21.2595510483
-0.040624551475,0.0563988909125,-1.07835233212,26.0410180092,,,,,-0.18,-1.68,-0.93,21.2969989777
-0.0413061752915,0.0594711750746,-1.07017886639,26.0436961651,,,,,-2.84,-2.07,-1.1,21.2973651886
-0.0576588064432,0.0677876472473,-1.06650853157,26.0460879803,,,,,-1.93,-1.85,-0.88,21.2977302074
-0.058093957603,0.0824151188135,-1.07857406139,26.0484750271,,,,,0.29,-1.43,-0.64,21.2980940342
-0.0352991074324,0.071002908051,-1.07016897202,26.0885641575,,,,,4.4,-1.03,-0.75,21.2990021706
-0.0455356910825,0.0598384067416,-1.05752420425,26.0909540653,,,,,-0.07,-1.37,-2.2,21.2993969917
-0.0582586601377,0.0801913291216,-1.04317140579,26.0934209824,,,,,-1.7,-1.09,-2.44,21.2997751236
-0.0476353764534,0.0995329171419,-1.03381097317,26.0958180428,,,,,-1.63,-0.61,-2.38,21.3001451492
-0.0460927411914,0.100312098861,-1.03045558929,26.0982031822,,,,,1.87,0.02,-1.55,21.3005092144
-0.0558838397264,0.0941663011909,-1.03043532372,26.1374230385,,,,,2.84,-0.11,-1.18,21.3014161587
-0.0474606379867,0.0981130897999,-1.03909301758,26.1398131847,,,,,-2.46,-0.5,-2.03,21.3018109798
-0.0418388545513,0.0950712263584,-1.03796482086,26.1422049999,,,,,-4.65,0.21,-2.43,21.302175045
-0.0483337342739,0.0888966247439,-1.04861390591,26.1446280479,,,,,-4.05,1.7,-2.28,21.3025391102
-0.0602135062218,0.0895094573498,-1.03331506252,26.1808750629,,,,,-2.35,1.83,-1.72,21.3029391766
-0.0661973357201,0.0861086547375,-1.03413486481,26.1833059788,,,,,-1.72,0.44,-1.02,21.3038539886
-0.0591222122312,0.0832277536392,-1.02083516121,26.1856842041,,,,,-7.38,-0.05,-2.12,21.3042449951
-0.057994812727,0.0876129493117,-1.02372872829,26.188065052,,,,,-7.42,0.67,-2.27,21.3046090603
-0.0601051673293,0.0903778672218,-1.04395985603,26.1904540062,,,,,-5.75,1.27,-2.04,21.3049731255
-0.0558144450188,0.0873384997249,-1.04769480228,26.2286760807,,,,,-1.94,0.78,-1.06,21.3053371906
-0.0534694045782,0.0855025947094,-1.03310739994,26.2310531139,,,,,-2.16,-0.2,-0.74,21.3062450886
-0.0430442988873,0.073946133256,-1.0173047781,26.2334771156,,,,,-7.03,-1.55,-1.27,21.3066391945
-0.0357910916209,0.0640511289239,-1.00745546818,26.2358651161,,,,,-6.41,-0.99,-1.21,21.3070020676
-0.0423039868474,0.0695158988237,-1.02024126053,26.2382512093,,,,,-0.81,-0.25,-0.32,21.3073670864
-0.0499282926321,0.0664080902934,-1.03253686428,26.2782351971,,,,,1.3,-0.52,0.28,21.3077311516
-0.055532887578,0.0759361758828,-1.0604184866,26.2806241512,,,,,-0.29,-1.94,0.75,21.3461019993
-0.05584423244,0.0710358917713,-1.05593633652,26.2830491066,,,,,-4.29,-2.13,0.08,21.3464961052
-0.0634837448597,0.0639065355062,-1.05233347416,26.2854361534,,,,,-1.85,-0.89,-0.14,21.3468601704
-0.0582837164402,0.0713631510735,-1.06164383888,26.2878241539,,,,,0.91,-0.53,0.17,21.3472230434
-0.0507131740451,0.0761033594608,-1.06899034977,26.3279571533,,,,,2.39,-1.23,1.14,21.3475871086
-0.0521241724491,0.0661289095879,-1.07180428505,26.3303411007,,,,,0.01,-2.0,1.35,21.3484950066
-0.0595199763775,0.0609861314297,-1.06721901894,26.3327260017,,,,,-4.51,-1.67,0.05,21.3488881588
-0.0600757151842,0.0769505575299,-1.05070984364,26.3351671696,,,,,-2.27,-0.64,-0.42,21.3492500782
-0.0556018725038,0.0746506899595,-1.04905378819,26.3707242012,,,,,2.92,0.52,-0.58,21.3496160507
-0.0582627952099,0.0548078641295,-1.05587041378,26.3731510639,,,,,2.71,0.26,-0.33,21.3499810696
-0.0531180053949,0.053858011961,-1.06703734398,26.3755412102,,,,,-2.81,-0.92,-0.27,21.3508911133
-0.0494220778346,0.0706404298544,-1.06612598896,26.3779292107,,,,,-4.4,-0.41,-1.63,21.3512830734
-0.0502207353711,0.0675821602345,-1.06855142117,26.3803181648,,,,,1.63,1.89,-2.63,21.3516480923
-0.0514800995588,0.0473251491785,-1.06092810631,26.4185609818,,,,,4.19,2.54,-2.41,21.3520112038
-0.0442931801081,0.0496563762426,-1.05656528473,26.4209480286,,,,,1.72,2.14,-0.88,21.3523740768
-0.0500702410936,0.0520221218467,-1.05330348015,26.4233751297,,,,,-2.04,1.46,-0.28,21.3533201218
-0.0579573661089,0.0469985380769,-1.05186724663,26.4257659912,,,,,-3.99,1.59,-0.45,21.3537111282
-0.0592533499002,0.0568572729826,-1.06134772301,26.428153038,,,,,-0.88,2.17,-0.46,21.3540751934
-0.0625064894557,0.0523634850979,-1.07432448864,26.4686431885,,,,,2.2,2.47,0.36,21.3544380665
-0.0636321529746,0.0552560985088,-1.07048547268,26.4710330963,,,,,-0.06,2.17,0.88,21.354801178
-0.0588025897741,0.0763465315104,-1.03444397449,26.4734590054,,,,,-8.1,1.56,1.11,21.3557109833
-0.0616417974234,0.0842005982995,-1.01446795464,26.4758470058,,,,,-9.12,1.91,0.3,21.3561031818
-0.060344979167,0.0854650437832,-1.00003540516,26.478233099,,,,,-3.22,2.6,-0.42,21.3564670086
-0.067136272788,0.0788235068321,-1.01045536995,26.5162301064,,,,,-1.68,2.57,-0.67,21.3568301201
-0.0825657248497,0.0718589946628,-1.02121162415,26.5186161995,,,,,-5.51,2.15,-0.94,21.3571951389
-0.0928966104984,0.0690668821335,-1.03983819485,26.5210011005,,,,,-8.65,1.98,-1.04,21.3930180073
-0.0923791825771,0.0838655680418,-1.05112302303,26.5234282017,,,,,-5.53,3.07,-0.97,21.3934130669
-0.0916711166501,0.0824469476938,-1.06640207767,26.5594081879,,,,,-1.48,3.58,-0.97,21.3937790394
-0.0910264179111,0.061738781631,-1.07689297199,26.5618000031,,,,,1.54,3.77,-1.07,21.3941421509
-0.104706346989,0.0656292364001,-1.07347011566,26.5642240047,,,,,-0.43,3.41,-1.01,21.3945059776
-0.106887251139,0.0694149062037,-1.07812142372,26.5666081905,,,,,-5.07,2.47,0.4,21.395414114
-0.0780527815223,0.0802165344357,-1.08756864071,26.568996191,,,,,-2.5,2.84,0.9,21.3958079815
-0.0638421773911,0.0862292349339,-1.08685517311,26.6095700264,,,,,3.31,4.27,1.16,21.3961720467
-0.0759966447949,0.0736159086227,-1.09821605682,26.6119580269,,,,,3.62,4.57,0.92,21.3965361118
-0.0771402940154,0.0682085677981,-1.10263180733,26.6143901348,,,,,1.52,4.39,0.69,21.3969011307
-0.0733377709985,0.0689900144935,-1.10038781166,26.6167809963,,,,,-4.3,3.05,0.71,21.3978111744
-0.0808804035187,0.0652396678925,-1.10714435577,26.61916399,,,,,0.78,2.74,0.18,21.3982040882
-0.0751968175173,0.0502348467708,-1.1035399437,26.6580212116,,,,,3.5,3.51,-0.36,21.3985681534
-0.0658778175712,0.0737560018897,-1.0962061882,26.6604101658,,,,,4.41,4.14,-0.93,21.3989331722
-0.074922978878,0.0677808225155,-1.10094857216,26.6628341675,,,,,0.6,4.26,-1.39,21.3992960453
-0.0915128961205,0.0514026507735,-1.09750437737,26.6652271748,,,,,-1.27,3.72,-1.39,21.4001991749
-0.0656865239143,0.0645566210151,-1.07816195488,26.6676139832,,,,,4.24,2.67,-1.86,21.4005901814
-0.0471277981997,0.0858205482364,-1.09438300133,26.7061641216,,,,,7.66,3.2,-2.16,21.4009530544
-0.0563570857048,0.0692080557346,-1.09211742878,26.7085499763,,,,,6.26,3.4,-1.99,21.4013171196
-0.0847110897303,0.0517858043313,-1.09226810932,26.7109391689,,,,,3.61,3.41,-1.61,21.4016811848
-0.0847937017679,0.0707641914487,-1.07968950272,26.7133741379,,,,,0.71,3.03,-0.7,21.402588129
-0.0633487254381,0.0792030394077,-1.06440186501,26.7495291233,,,,,7.75,2.35,-0.26,21.4030480385
-0.0696340203285,0.0655107423663,-1.06470525265,26.7519180775,,,,,8.31,2.26,-0.16,21.4034152031
-0.0754463598132,0.0530253499746,-1.04039514065,26.7544970512,,,,,6.92,2.14,-0.1,21.4379241467
-0.055452272296,0.0517139211297,-1.03633546829,26.7568900585,,,,,1.67,2.13,0.17,21.4382901192
-0.0663260966539,0.050680026412,-1.01898992062,26.7592861652,,,,,0.52,2.12,0.35,21.4392001629
-0.0742724463344,0.0603400096297,-1.00950336456,26.7985851765,,,,,5.01,1.34,0.67,21.4395911694
-0.0546923726797,0.0795216560364,-1.02632951736,26.8009769917,,,,,5.04,0.94,0.72,21.4399561882
-0.0419704467058,0.0830489248037,-1.02691996098,26.8034081459,,,,,0.35,0.16,0.71,21.4403171539
-0.0499997511506,0.0741691663861,-1.03121769428,26.8058021069,,,,,-2.34,-0.12,0.72,21.4406809807
-0.060827344656,0.067222751677,-1.0276683569,26.8081901073,,,,,-3.31,-0.94,0.84,21.4415881634
-0.0507012605667,0.0757998004556,-1.02388954163,26.8487420082,,,,,-0.12,-2.0,0.66,21.4419791698
-0.0492830276489,0.0615916699171,-1.0480287075,26.8514430523,,,,,-1.82,-2.22,0.39,21.4423429966
-0.0761796683073,0.0618942826986,-1.06476640701,26.8538742065,,,,,-4.31,-2.01,0.34,21.4427070618
-0.0707905963063,0.076046526432,-1.07622599602,26.8562510014,,,,,-6.95,-1.74,0.66,21.4431040287
-0.0570885017514,0.0706532001495,-1.10177612305,26.8923280239,,,,,-5.66,-2.0,0.84,21.4440140724
-0.0601774081588,0.0662461221218,-1.10050010681,26.8947620392,,,,,0.06,-3.03,0.0,21.4444060326
-0.0485118106008,0.0675667822361,-1.07760822773,26.897149086,,,,,-0.83,-2.61,-0.34,21.4447720051
-0.0373148098588,0.0830322057009,-1.07162487507,26.8995811939,,,,,-4.45,-1.0,-0.21,21.4451541901
-0.0478378906846,0.0827187821269,-1.08965957165,26.9020090103,,,,,-4.75,-0.31,0.18,21.4455311298
-0.064066439867,0.0758029818535,-1.09252905846,26.9394481182,,,,,-0.99,-0.27,0.4,21.446434021
-0.0677391812205,0.0667493417859,-1.08713102341,26.9415111542,,,,,1.62,-0.88,-0.74,21.4468431473
-0.0615423768759,0.052036061883,-1.09628343582,26.9439401627,,,,,-2.38,-0.36,-1.53,21.4472060204
-0.0663350373507,0.0514837130904,-1.10404443741,26.9463319778,,,,,-4.58,0.21,-1.28,21.4475710392
-0.0790131688118,0.0599657520652,-1.09388923645,26.9487199783,,,,,-3.88,0.98,-0.19,21.4479341507
-0.0784006714821,0.0619046464562,-1.0868691206,26.9893040657,,,,,-1.75,0.99,0.07,21.4488430023
-0.0578783378005,0.0676422640681,-1.10732698441,26.9916892052,,,,,-0.79,0.66,-0.92,21.4873850346
-0.0402781888843,0.0728049725294,-1.103754282,26.9941151142,,,,,-3.28,1.0,-1.06,21.4877481461
-0.0576441064477,0.0575705096126,-1.10652053356,26.996502161,,,,,-5.17,1.63,-0.37,21.4881110191
-0.0562188774347,0.0450680106878,-1.10384500027,26.9988930225,,,,,-3.48,1.81,0.23,21.4884750843
-0.0417876392603,0.0535567328334,-1.09189045429,27.0379509926,,,,,1.49,1.69,0.79,21.4893801212
-0.0563189461827,0.0532546713948,-1.07285547256,27.0403389931,,,,,1.3,2.07,0.24,21.489773035
-0.0626100227237,0.0516410022974,-1.05905604362,27.0427331924,,,,,-1.84,3.63,-0.23,21.4901390076
-0.0674316883087,0.0578065663576,-1.04766106606,27.0451691151,,,,,-1.5,4.3,-0.12,21.4905021191
-0.0672623440623,0.0631079897285,-1.0514279604,27.0824990273,,,,,3.15,4.37,0.41,21.4908671379
-0.0556972697377,0.0749923065305,-1.04889297485,27.0849289894,,,,,4.97,3.92,0.56,21.491779089
-0.0477719828486,0.0745222121477,-1.03403425217,27.087321043,,,,,1.53,4.51,-0.92,21.4921700954
-0.0515752360225,0.08370950073,-1.02629613876,27.0897080898,,,,,0.05,5.77,-1.46,21.4925351143
-0.0544980093837,0.0811120569706,-1.02738821507,27.092094183,,,,,2.26,7.38,-1.51,21.4929339886
-0.0537252649665,0.0647467672825,-1.03505063057,27.1293029785,,,,,4.61,7.07,-0.98,21.4933011532
-0.0514805912971,0.0622558072209,-1.03132998943,27.1316900253,,,,,5.46,4.94,-0.18,21.4942121506
-0.0477545559406,0.065860658884,-1.01052761078,27.134114027,,,,,1.34,4.31,-0.95,21.4946041107
-0.0656231492758,0.0518548861146,-1.03237164021,27.1365010738,,,,,-0.11,6.06,-1.7,21.4949681759
-0.0636514350772,0.0446229726076,-1.04769265652,27.1388881207,,,,,1.63,6.54,-1.45,21.495331049
-0.0539018362761,0.0595826804638,-1.06821417809,27.1784629822,,,,,3.75,6.21,-0.79,21.4956960678
-0.057230733335,0.0615788772702,-1.05938720703,27.1808481216,,,,,3.87,3.53,0.59,21.4966030121
-0.0601333901286,0.0544530376792,-1.05161976814,27.1832740307,,,,,-2.71,1.74,0.54,21.4969961643
-0.0640067756176,0.0413130372763,-1.05248486996,27.1856641769,,,,,-2.47,2.25,0.58,21.4973611832
-0.0591428428888,0.0497334450483,-1.05025887489,27.1880440712,,,,,2.27,2.48,1.41,21.4977231026
-0.0533523261547,0.057392552495,-1.05884790421,27.228066206,,,,,3.87,1.76,1.94,21.4980871677
-0.0632235854864,0.0568482801318,-1.05830001831,27.2304542065,,,,,1.4,-0.13,2.31,21.5357739925
-0.0645143315196,0.0633255317807,-1.0355618,27.232874155,,,,,-2.51,-0.4,1.58,21.5361690521
-0.0591031387448,0.0560426712036,-1.02205121517,27.2352662086,,,,,0.43,0.73,1.11,21.5365321636
-0.0647188723087,0.0424591973424,-1.03136658669,27.2724580765,,,,,3.53,0.84,1.06,21.5368971825
-0.0575390905142,0.0509007424116,-1.04265117645,27.2748880386,,,,,5.7,0.54,1.11,21.5372600555
-0.0483847633004,0.0502634197474,-1.04733300209,27.2772750854,,,,,4.26,-0.73,1.02,21.5381681919
-0.0624364316463,0.0540612414479,-1.04030394554,27.2796621323,,,,,0.57,-0.23,0.22,21.5385611057
-0.0686887130141,0.0591303631663,-1.03206026554,27.2820501328,,,,,2.27,0.39,-0.02,21.5389239788
-0.0554318279028,0.0493210107088,-1.03703594208,27.3186671734,,,,,4.38,0.68,-0.14,21.539288044
-0.0483432486653,0.0449061542749,-1.02893853188,27.3210520744,,,,,4.91,-0.31,0.11,21.5396502018
-0.0558539032936,0.0440462306142,-1.03646051884,27.3234779835,,,,,2.44,-1.29,0.52,21.5405580997
-0.0658253282309,0.0573748350143,-1.03230404854,27.3258621693,,,,,-0.64,-2.3,1.46,21.5409500599
-0.0608611851931,0.0650034323335,-1.02987706661,27.328248024,,,,,1.58,-1.58,1.41,21.5413131714
-0.0481089130044,0.0533707663417,-1.02537083626,27.3687341213,,,,,5.21,-0.37,0.86,21.5416800976
-0.0557449758053,0.0524860993028,-1.03256118298,27.3711221218,,,,,4.3,-0.34,0.61,21.5420432091
-0.0581457987428,0.0531342327595,-1.02379488945,27.3735501766,,,,,-0.6,-0.91,0.39,21.542994976
-0.0414644554257,0.0508570894599,-1.02701365948,27.3759400845,,,,,4.66,-0.33,-0.32,21.5433909893
-0.0484952479601,0.0504179820418,-1.03170573711,27.3783271313,,,,,8.18,0.36,-0.67,21.5437531471
-0.0751492753625,0.0428716763854,-1.03750109673,27.4175820351,,,,,9.83,0.91,-0.98,21.544118166
-0.0725111663342,0.0560841709375,-1.0578212738,27.4199650288,,,,,5.68,1.45,-1.35,21.544481039
-0.0620876401663,0.0731462612748,-1.06512200832,27.4223561287,,,,,2.46,1.51,-1.43,21.5453901291
-0.0716564431787,0.0586506202817,-1.06289637089,27.4247820377,,,,,5.57,1.35,-1.06,21.5457830429
-0.0682215243578,0.0459895730019,-1.04827058315,27.4611151218,,,,,8.92,1.09,-0.61,21.5461461544
-0.0519639477134,0.0477399006486,-1.03313696384,27.4635400772,,,,,9.17,0.48,0.24,21.5465080738
-0.0526123642921,0.0454567596316,-1.04722201824,27.4659152031,,,,,5.59,0.35,0.34,21.546872139
-0.0589155107737,0.0505731627345,-1.05705463886,27.468296051,,,,,-1.46,0.84,0.06,21.5817120075
-0.0553346648812,0.0663070678711,-1.04386460781,27.4706861973,,,,,0.82,0.99,-0.19,21.5821042061
-0.0599468201399,0.0596094354987,-1.03899860382,27.5092661381,,,,,5.9,-0.05,0.25,21.5824701786
-0.0685801059008,0.0461408570409,-1.03712069988,27.511660099,,,,,5.55,-0.87,0.36,21.5828661919
-0.0671689882874,0.0486911460757,-1.04358434677,27.5140771866,,,,,-0.87,-2.05,0.08,21.5832340717
-0.0703890025616,0.0553588867188,-1.04237163067,27.5164651871,,,,,-3.79,-2.31,-0.16,21.5841431618
-0.0615464299917,0.0664788112044,-1.05190372467,27.5188570023,,,,,0.84,-2.76,0.12,21.5845341682
-0.0549389570951,0.0664190649986,-1.05447459221,27.5581800938,,,,,3.35,-3.02,0.62,21.5849001408
-0.0540802106261,0.062172010541,-1.05971622467,27.5605621338,,,,,2.53,-3.82,1.57,21.5852642059
-0.0483893454075,0.0594857782125,-1.06687951088,27.562983036,,,,,0.11,-4.45,1.91,21.5856280327
-0.0489796325564,0.0564746633172,-1.08965992928,27.5653691292,,,,,-1.75,-5.83,2.63,21.5865430832
-0.0492358654737,0.0507651045918,-1.09726381302,27.5677599907,,,,,3.8,-6.2,3.08,21.586935997
-0.0415638759732,0.0539125651121,-1.09614694118,27.6081740856,,,,,7.24,-4.97,3.1,21.5873000622
-0.0416805744171,0.07673355937,-1.07695913315,27.6106240749,,,,,6.24,-4.48,2.86,21.5876641273
-0.0472732782364,0.0707908719778,-1.06860184669,27.6130511761,,,,,2.5,-5.11,2.23,21.5880281925
-0.0317951664329,0.0431939288974,-1.06606352329,27.6154470444,,,,,2.32,-6.13,1.9,21.5889370441
-0.00454309955239,0.0328671038151,-1.05870568752,27.6508049965,,,,,7.16,-7.19,0.58,21.5893290043
-0.000882362830453,0.0230285730213,-1.05642735958,27.6532371044,,,,,6.82,-6.38,0.29,21.5896949768
-0.0207556150854,0.0157657954842,-1.0542576313,27.6556241512,,,,,2.73,-5.36,0.1,21.590059042
-0.0400265008211,0.0275692213327,-1.04302155972,27.658011198,,,,,1.45,-5.76,0.16,21.5904231071
-0.0406486615539,0.026867384091,-1.0162705183,27.6604061127,,,,,3.2,-7.57,0.09,21.5913300514
-0.0383700802922,0.0328360125422,-1.00257730484,27.6986370087,,,,,5.41,-7.92,-0.19,21.5917241573
-0.0463952869177,0.0329737961292,-0.990171909332,27.7010321617,,,,,1.71,-6.53,0.17,21.6276190281
-0.0435777753592,0.018546031788,-0.988818049431,27.7037920952,,,,,-0.18,-6.32,0.56,21.6279871464
-0.020354308188,0.0351504534483,-0.998908519745,27.7061769962,,,,,-0.31,-6.77,0.93,21.6283512115
-0.0324090197682,0.0377948954701,-0.997198343277,27.7085630894,,,,,4.18,-8.24,1.11,21.6292622089
-0.0468089431524,0.0219596456736,-0.985544085503,27.7486531734,,,,,5.69,-7.02,-0.18,21.6296579838
-0.0367734357715,0.0240471940488,-0.971424639225,27.7510421276,,,,,2.83,-5.86,-0.54,21.630022049
-0.022226639092,0.0288916174322,-0.96724396944,27.7534601688,,,,,0.62,-5.38,-0.94,21.6303880215
-0.0133394934237,0.0383321717381,-0.967655301094,27.7558450699,,,,,2.99,-6.1,-0.94,21.630751133
-0.0288312844932,0.044250972569,-0.966118454933,27.7582361698,,,,,9.8,-7.68,-0.95,21.6316621304
-0.0321393236518,0.0656113699079,-0.949103951454,27.7962670326,,,,,9.13,-6.67,-1.24,21.6320550442
-0.0339243859053,0.0610983893275,-0.961789369583,27.7986590862,,,,,2.27,-4.45,-1.7,21.6324191093
-0.0440994352102,0.047365270555,-0.974815189838,27.8010420799,,,,,0.75,-4.24,-1.72,21.6327831745
-0.0352183058858,0.0683870464563,-0.972972810268,27.8034670353,,,,,1.72,-4.98,-1.46,21.6331830025
-0.0225138366222,0.0712695643306,-0.979400277138,27.840873003,,,,,6.31,-7.71,-0.06,21.6341190338
-0.0202530808747,0.0513903349638,-1.00029587746,27.8433170319,,,,,1.3,-7.05,1.1,21.634524107
-0.0293006561697,0.0505963265896,-1.00317370892,27.8457090855,,,,,-2.36,-5.73,0.97,21.6348891258
-0.0446717143059,0.0532856360078,-0.999943256378,27.8480911255,,,,,-4.06,-5.04,0.86,21.6352519989
-0.0416803956032,0.0592338219285,-1.00128686428,27.8504800797,,,,,-2.21,-6.04,1.31,21.6356160641
-0.0352614969015,0.0517444610596,-1.02007222176,27.8889141083,,,,,-0.77,-8.78,3.21,21.6365220547
-0.0321794524789,0.0314397439361,-1.02207040787,27.8913021088,,,,,-2.87,-8.22,3.3,21.6369140148
-0.0311973858625,0.0162760335952,-1.02349019051,27.8937292099,,,,,-4.71,-7.24,3.05,21.6372790337
-0.0344365760684,0.0194659661502,-1.03163957596,27.8961160183,,,,,-3.36,-6.46,2.43,21.6376440525
-0.0411238223314,0.0237829778343,-1.04465222359,27.8985030651,,,,,-0.59,-7.18,2.34,21.6380081177
-0.0324219465256,0.0318091288209,-1.02316188812,27.938103199,,,,,2.12,-9.31,2.46,21.6765050888
-0.0278120301664,0.0359145402908,-1.01435315609,27.9404890537,,,,,-3.18,-9.49,1.05,21.676910162
-0.0350244492292,0.0372467264533,-1.01397430897,27.9429051876,,,,,-3.29,-9.24,0.39,21.6772751808
-0.0401287898421,0.036662094295,-1.01334702969,27.9453001022,,,,,-1.4,-9.38,-0.07,21.677642107
-0.0393537282944,0.0438261330128,-1.00198829174,27.9476921558,,,,,3.61,-10.42,-0.33,21.6780049801
-0.0371287465096,0.0534610524774,-0.984207868576,27.9861440659,,,,,3.8,-10.82,-0.21,21.6789112091
-0.0330623909831,0.0518377125263,-0.984387874603,27.9885179996,,,,,-2.22,-11.02,-0.84,21.6793041229
-0.0338754206896,0.0448578670621,-0.983328342438,27.9909090996,,,,,-2.05,-11.14,-1.19,21.6796691418
-0.0431017205119,0.041429720819,-0.989616513252,27.9933321476,,,,,3.24,-12.03,-1.07,21.6800320148
-0.0542627051473,0.0334028974175,-0.998492598534,28.0296142101,,,,,5.49,-12.39,-0.4,21.68039608
-0.0523570030928,0.0424776673317,-0.998539447784,28.0320050716,,,,,3.2,-12.56,1.51,21.6813161373
-0.0502872169018,0.0499642267823,-1.00455057621,28.034430027,,,,,0.12,-12.54,2.2,21.6816651821
-0.0549271926284,0.037504054606,-1.00637900829,28.0368201733,,,,,-1.75,-12.63,2.41,21.682030201
-0.056867159903,0.0285364929587,-0.99577486515,28.0392119884,,,,,1.02,-12.9,1.78,21.682393074
-0.0688346922398,0.0380346179008,-0.991170883179,28.078630209,,,,,4.2,-12.81,1.44,21.6827561855
-0.0735001415014,0.0462401136756,-0.996581077576,28.08101511,,,,,5.84,-11.89,1.76,21.6831600666
-0.0521462187171,0.0540637671947,-0.989666819572,28.0834550858,,,,,2.8,-11.25,2.4,21.6840701103
-0.0347672402859,0.0484665334225,-0.975197136402,28.0858490467,,,,,-2.77,-11.69,2.52,21.6844651699
-0.0468936860561,0.0326851904392,-0.98022377491,28.0882241726,,,,,0.11,-11.98,1.8,21.6848289967
-0.0725505203009,0.0259873177856,-1.00157904625,28.1285891533,,,,,6.7,-11.42,1.08,21.6851930618
-0.0771051049232,0.036201454699,-0.996791362762,28.1309771538,,,,,6.58,-10.46,1.68,21.6855611801
-0.0709997564554,0.0428026169538,-0.993276238441,28.1334080696,,,,,-0.69,-8.67,3.84,21.6864640713
-0.0744561254978,0.0423521101475,-0.988896012306,28.135789156,,,,,-4.06,-9.33,4.34,21.6868569851
-0.0797453522682,0.0339820608497,-1.00255429745,28.138174057,,,,,3.02,-11.11,3.36,21.6872220039
-0.0791145116091,0.0320731475949,-1.00599443913,28.1761391163,,,,,6.34,-11.37,3.34,21.6875870228
-0.083721101284,0.0339760482311,-1.00787317753,28.1785271168,,,,,4.02,-9.81,4.89,21.6879520416
-0.0816889330745,0.0353655219078,-1.00899374485,28.18090415,,,,,-1.0,-8.62,5.74,21.725782156
-0.0741598531604,0.0316233560443,-1.02781045437,28.183327198,,,,,-6.28,-9.0,4.39,21.7261731625
-0.0783158093691,0.0214941743761,-1.02614021301,28.2195930481,,,,,-2.57,-10.19,3.2,21.7265381813
-0.0780118107796,0.013684278354,-1.02197229862,28.2219810486,,,,,3.36,-11.25,1.91,21.7269010544
-0.0702883154154,0.0063794106245,-1.03578054905,28.224407196,,,,,2.13,-10.69,2.09,21.7272651196
-0.0761404782534,0.0126099921763,-1.03798222542,28.2267901897,,,,,-5.98,-9.0,2.58,21.7281711102
-0.0812366232276,0.0216443482786,-1.03322577477,28.2291791439,,,,,-7.98,-9.65,1.55,21.7285649776
-0.0826198905706,0.0196802001446,-1.03521752357,28.2688901424,,,,,-0.49,-11.12,0.1,21.7289290428
-0.079098880291,0.029820388183,-1.01681351662,28.2712781429,,,,,2.52,-11.05,-0.14,21.7292940617
-0.0693705528975,0.0278141926974,-0.994983315468,28.273704052,,,,,0.59,-9.55,0.64,21.7296590805
-0.0796840637922,0.0215803291649,-0.992139816284,28.2760941982,,,,,-2.71,-9.18,1.12,21.7305622101
-0.089621938765,0.0291603412479,-0.979116797447,28.2784872055,,,,,-2.31,-11.19,0.87,21.7309560776
-0.0855398774147,0.0316227525473,-0.983271241188,28.3180420399,,,,,1.06,-11.25,0.66,21.7313191891
-0.0869417861104,0.0345837473869,-1.00015068054,28.3204300404,,,,,3.42,-9.16,1.18,21.7316842079
-0.0883764922619,0.0382643565536,-1.0228780508,28.3228530884,,,,,0.87,-8.08,1.96,21.7320480347
-0.0839441418648,0.0340971797705,-1.01742756367,28.3252470493,,,,,-5.22,-9.04,3.17,21.7329909801
-0.0880036950111,0.034824475646,-1.02579629421,28.3276410103,,,,,-2.57,-12.21,2.45,21.7333869934
-0.0965662002563,0.0388477146626,-1.03572154045,28.366161108,,,,,3.8,-11.11,1.17,21.7337520123
-0.0910909920931,0.0377785116434,-1.04412198067,28.3685491085,,,,,4.26,-8.88,1.05,21.7341170311
-0.089081004262,0.0210652146488,-1.04087889194,28.3709380627,,,,,2.1,-6.63,1.34,21.7344820499
-0.0946507304907,0.00984157808125,-1.04099905491,28.3733661175,,,,,-3.61,-6.02,1.67,21.7353789806
-0.0953596681356,0.00089293718338,-1.03774023056,28.4095880985,,,,,3.91,-10.35,-0.83,21.7357721329
-0.0880626663566,-0.0129308793694,-1.04653298855,28.4119842052,,,,,7.39,-9.66,-1.26,21.736136198
-0.090078137815,-0.0221043080091,-1.06677865982,28.4144170284,,,,,8.41,-7.63,-0.92,21.7364990711
-0.0985623002052,-0.0190972778946,-1.06305134296,28.4168121815,,,,,2.62,-3.33,0.97,21.73686409
-0.0940079838037,-0.0132468268275,-1.05493056774,28.419200182,,,,,-2.61,-4.33,1.5,21.7713141441
-0.0856731384993,0.00240428559482,-1.02279746532,28.4585900307,,,,,2.19,-8.22,0.43,21.771707058
-0.0796253755689,0.0205176044255,-0.998637318611,28.4609901905,,,,,7.16,-8.1,0.86,21.7720720768
-0.074197165668,0.011341130361,-0.981090664864,28.4637680054,,,,,6.11,-6.41,1.77,21.772436142
-0.073139809072,0.00885901413858,-0.983468770981,28.4661631584,,,,,2.69,-4.71,2.65,21.7728300095
-0.0807686299086,0.0221510995179,-0.981808543205,28.4685590267,,,,,-4.05,-4.49,2.63,21.7737410069
-0.0929891169071,0.0193332079798,-0.989421248436,28.5082089901,,,,,2.07,-8.64,0.29,21.7741360664
-0.0947764962912,0.0197077672929,-0.995841860771,28.51060009,,,,,5.08,-8.27,0.19,21.7745001316
-0.0886901393533,0.025512194261,-1.00641822815,28.513035059,,,,,6.12,-6.87,0.52,21.7748630047
-0.097663000226,0.0199078675359,-1.00893497467,28.5154321194,,,,,2.34,-4.16,1.15,21.7752261162
-0.107683569193,0.0179186370224,-1.00627863407,28.552298069,,,,,0.11,-4.41,0.93,21.7761301994
-0.0953819155693,0.0310712102801,-0.983269453049,28.5548021793,,,,,2.98,-8.06,0.19,21.7765231133
-0.0904764682055,0.0249557998031,-0.976956129074,28.557197094,,,,,5.04,-7.65,0.59,21.7768871784
-0.094526745379,0.0178125556558,-0.963149249554,28.5595932007,,,,,4.99,-4.61,2.07,21.7772500515
-0.0937617868185,0.0245253760368,-0.964015722275,28.5619871616,,,,,3.34,-3.79,2.59,21.7776141167
-0.09770385921,0.0375822931528,-0.977746009827,28.5986139774,,,,,1.29,-6.25,2.74,21.7785181999
-0.0992117449641,0.0483128651977,-1.0003464222,28.6010091305,,,,,3.59,-9.24,2.62,21.7789101601
-0.0859510600567,0.0471997782588,-1.00757157803,28.6034481525,,,,,4.32,-6.74,3.16,21.7792761326
-0.0760859921575,0.0465569868684,-1.01394152641,28.6058452129,,,,,3.27,-4.6,3.48,21.7796390057
-0.0891255289316,0.0415226891637,-0.99993789196,28.6082420349,,,,,1.58,-3.98,3.42,21.7800030708
-0.0969929397106,0.039419285953,-0.990315675735,28.6488990784,,,,,2.73,-6.11,2.86,21.7809062004
-0.0868841707706,0.0496455729008,-1.00608122349,28.6512989998,,,,,8.61,-9.25,1.22,21.7812981606
-0.0829935669899,0.0612159371376,-1.0104919672,28.6537489891,,,,,7.66,-6.88,1.09,21.8175621033
-0.0785778164864,0.0619751811028,-1.02135491371,28.6561410427,,,,,2.0,-1.39,1.03,21.8179299831
-0.0793700963259,0.0527296587825,-1.01988768578,28.6585321426,,,,,0.38,-0.88,0.65,21.8182930946
-0.088030397892,0.0524234101176,-1.02231502533,28.6977231503,,,,,3.77,-4.64,-0.64,21.8191981316
-0.0976663082838,0.0621160417795,-1.00989043713,28.7001171112,,,,,9.05,-6.9,-0.85,21.8195900917
-0.108306974173,0.0570814013481,-1.01104652882,28.7025129795,,,,,5.42,-2.59,0.5,21.8199551105
-0.11378595233,0.0455238223076,-1.00843799114,28.7049450874,,,,,1.23,0.04,0.96,21.8203179836
-0.106281638145,0.0437199994922,-1.00625133514,28.7423951626,,,,,-3.84,1.23,0.28,21.8206820488
-0.0977830290794,0.0427322164178,-1.00405049324,28.7448279858,,,,,-2.66,-0.3,-0.54,21.8215880394
-0.102741591632,0.0424680635333,-1.01060569286,28.7472121716,,,,,4.91,-2.85,-0.5,21.8219811916
-0.107234790921,0.0382302328944,-1.01433146,28.7496030331,,,,,3.97,-1.54,0.32,21.8223450184
-0.108422711492,0.0365731790662,-1.00866770744,28.751996994,,,,,-3.05,0.91,1.07,21.8227081299
-0.102807894349,0.0283538755029,-1.01270616055,28.7891051769,,,,,-6.22,0.67,0.62,21.8231160641
-0.102060228586,0.0235717389733,-1.01362657547,28.7915019989,,,,,-5.8,-2.18,-0.48,21.8240201473
-0.105023920536,0.0138487983495,-1.02426183224,28.7939341068,,,,,0.61,-3.11,0.02,21.8244111538
-0.100725352764,0.00060279853642,-1.03110468388,28.7963252068,,,,,2.71,-1.1,1.34,21.8247761726
-0.0986349880695,0.00644479505718,-1.02753126621,28.798718214,,,,,1.09,-0.56,1.45,21.8251399994
-0.109317019582,0.0150100681931,-1.02855956554,28.8382210732,,,,,-3.3,-2.48,0.6,21.8255031109
-0.111813306808,0.0221947561949,-1.0249350071,28.840610981,,,,,-3.67,-4.01,0.33,21.8264341354
-0.102759338915,0.0307612065226,-1.0190230608,28.843047142,,,,,3.32,-2.76,1.52,21.8268270493
-0.10059247911,0.0224339384586,-1.01711130142,28.8454492092,,,,,5.27,-1.16,1.96,21.8272140026
-0.101397462189,0.026348175481,-1.00885105133,28.847851038,,,,,5.22,-1.16,1.69,21.8275940418
-3.21598257885e-19,1.45815301712e-31,-5.7072038544e-06,28.8879010677,,,,,3.86,-3.09,1.24,21.827958107
-0.10824021697,0.0601747110486,-0.993247866631,28.8905961514,,,,,3.01,-6.55,0.96,21.8665401936
-0.0999374017119,0.0524269118905,-0.981062650681,28.8930242062,,,,,5.28,-4.57,2.13,21.8669350147
-0.102901041508,0.0508426651359,-0.985449790955,28.8954241276,,,,,7.63,-1.63,3.39,21.8672981262
-0.116023540497,0.0546436905861,-0.997047424316,28.9309442043,,,,,8.09,-2.31,3.6,21.8676631451
-0.133667439222,0.0473213866353,-1.00404584408,28.9333779812,,,,,8.19,-4.44,3.49,21.8680260181
-0.137002617121,0.0416249781847,-1.01105248928,28.9357731342,,,,,8.44,-8.42,2.97,21.8689250946
-0.127664655447,0.042472884059,-1.01446211338,28.9381639957,,,,,7.62,-3.95,3.27,21.8693161011
-0.127296447754,0.044532418251,-1.01650691032,28.9405519962,,,,,6.74,-2.29,3.43,21.8696820736
-0.128088653088,0.0386198908091,-1.01229095459,28.9785439968,,,,,6.19,-3.86,3.08,21.8700461388
-0.122691214085,0.0259391348809,-1.00162363052,28.98093009,,,,,6.78,-5.91,2.73,21.8704102039
-0.11584225297,0.0223300214857,-0.986260652542,28.9833600521,,,,,8.94,-7.2,2.1,21.8713111877
-0.11642858386,0.0133413933218,-0.973180890083,28.9857561588,,,,,8.53,-3.21,1.74,21.8717031479
-0.127013191581,0.00206584297121,-0.988283753395,28.9881510735,,,,,5.08,-1.14,0.79,21.8720681667
-0.131359711289,0.000461265444756,-1.00918412209,29.0284900665,,,,,3.95,-2.22,0.09,21.8724319935
-0.11815841496,-0.00625389441848,-1.01787865162,29.0308861732,,,,,3.86,-4.0,-0.43,21.872824192
-0.120846644044,-0.0124773737043,-1.03411757946,29.0333170891,,,,,6.79,-5.84,-0.49,21.8737339973
-0.112651854753,0.0141113717109,-1.03806591034,29.0357120037,,,,,7.88,-2.3,0.33,21.8741281033
-0.107620745897,0.0204000342637,-1.04035484791,29.038105011,,,,,5.22,-2.32,0.19,21.8744909763
-0.120193555951,0.00611510686576,-1.03316175938,29.0774540901,,,,,2.25,-3.6,-0.11,21.8748559952
-0.114932984114,0.0148405339569,-1.02704298496,29.0798501968,,,,,-0.58,-7.37,0.1,21.8752191067
-0.11494345963,0.0152158606797,-1.03002870083,29.082242012,,,,,3.66,-7.64,1.68,21.8761260509
-0.118403658271,0.00690036453307,-1.04860877991,29.0846850872,,,,,7.44,-4.92,2.63,21.8765192032
-0.111417382956,-0.00573608279228,-1.0707398653,29.1209170818,,,,,6.35,-4.31,2.43,21.8768830299
-0.104599937797,-0.00944487005472,-1.06832849979,29.1233460903,,,,,0.43,-6.03,1.32,21.8772470951
-0.104202821851,0.000371666625142,-1.06278598309,29.1257441044,,,,,-1.72,-7.18,1.06,21.877612114
-0.106914773583,0.015417503193,-1.07137835026,29.1281290054,,,,,0.34,-7.0,1.34,21.9144470692
-0.103741139174,0.0315086171031,-1.08145737648,29.1305160522,,,,,6.27,-3.87,1.74,21.9148411751
-0.104347288609,0.0238143969327,-1.08020663261,29.1690371037,,,,,5.8,-3.08,1.49,21.9152040482
-0.101921871305,0.00289116241038,-1.09176933765,29.1714301109,,,,,2.88,-4.04,1.23,21.9155681133
-0.114965617657,0.00100303255022,-1.09150707722,29.17385602,,,,,-2.23,-5.92,1.01,21.9159331322
-0.133899286389,0.0151500534266,-1.08646821976,29.1762480736,,,,,-2.48,-5.83,1.13,21.9168419838
-0.126647919416,0.0107333865017,-1.08260440826,29.1786420345,,,,,1.75,-3.99,2.42,21.9172341824
-0.124637573957,-0.0124656949192,-1.08775746822,29.2181880474,,,,,1.85,-4.53,2.91,21.9176020622
-0.132792443037,-0.0091131515801,-1.09782636166,29.2205781937,,,,,-0.34,-6.81,3.31,21.9179651737
-0.122463226318,0.0106961242855,-1.08327579498,29.2230100632,,,,,-1.39,-7.26,3.16,21.9183301926
-0.115814223886,0.0179400574416,-1.07834529877,29.2254061699,,,,,-1.2,-6.0,2.25,21.9192371368
-0.123404353857,0.0133433807641,-1.08209764957,29.2277970314,,,,,-0.49,-4.28,1.62,21.9196281433
-0.120016500354,0.0205596406013,-1.07574009895,29.2675900459,,,,,-0.04,-4.77,1.05,21.9199910164
-0.126745134592,0.0191886480898,-1.08215034008,29.2699890137,,,,,0.82,-5.33,0.7,21.9203541279
-0.139779388905,-0.00609578192234,-1.08072984219,29.2723791599,,,,,3.67,-5.34,0.09,21.9207181931
-0.133232474327,-0.0100541785359,-1.06309998035,29.2748141289,,,,,4.56,-4.82,-0.01,21.9216251373
-0.122413381934,0.00399901717901,-1.05951964855,29.3106811047,,,,,-0.63,-3.68,0.25,21.9220190048
-0.123031795025,0.00616403482854,-1.06069111824,29.3131091595,,,,,-2.93,-3.89,0.07,21.9223840237
-0.120275497437,0.00591968372464,-1.05877053738,29.3155031204,,,,,-2.21,-4.92,-0.53,21.9227461815
-0.109910905361,0.0141774211079,-1.05563926697,29.3179020882,,,,,0.16,-5.47,-0.56,21.9231450558
-0.111419007182,0.00663433037698,-1.05768978596,29.3202941418,,,,,2.87,-6.4,-0.03,21.924049139
-0.114114135504,-0.00238448381424,-1.05502820015,29.359899044,,,,,-3.02,-6.62,0.66,21.9244420528
-0.127592384815,-0.00209910422564,-1.06433212757,29.3622891903,,,,,-9.51,-6.69,0.56,21.924790144
-0.138819143176,0.00901681371033,-1.0572206974,29.3647210598,,,,,-9.04,-6.99,0.4,21.9251551628
-0.133219406009,0.00891822203994,-1.05170762539,29.3671162128,,,,,-1.71,-8.05,0.22,21.9592151642
-0.132947802544,-0.00916605629027,-1.05140292645,29.3695089817,,,,,1.59,-8.56,0.21,21.9601330757
-0.133844435215,-0.0141237396747,-1.05951488018,29.4084939957,,,,,-3.32,-8.49,0.72,21.9605271816
-0.130266323686,-0.0192062612623,-1.06819689274,29.4108891487,,,,,-6.83,-8.45,1.0,21.9608910084
-0.131450027227,-0.0226577166468,-1.06805098057,29.4133269787,,,,,-7.62,-8.84,1.83,21.9612550735
-0.133499383926,-0.0178445987403,-1.05563127995,29.4157211781,,,,,-5.12,-8.99,2.23,21.961618185
-0.121886283159,-0.0155548378825,-1.04973053932,29.4181210995,,,,,-0.69,-8.51,2.76,21.9625301361
-0.106437876821,-0.0263011809438,-1.06007885933,29.4564011097,,,,,-3.01,-8.09,3.09,21.962954998
-0.107389718294,-0.0287011247128,-1.05870127678,29.4587922096,,,,,-7.28,-9.67,3.34,21.9633221626
-0.127346992493,-0.02667327784,-1.05182802677,29.4611830711,,,,,-8.02,-10.63,3.45,21.9636871815
-0.137853369117,-0.0270318146795,-1.04398703575,29.4636230469,,,,,-7.85,-10.98,3.48,21.9640522003
-0.131565287709,-0.0241922382265,-1.03374242783,29.4995679855,,,,,-6.56,-9.39,3.18,21.9649610519
-0.131850674748,-0.0261802244931,-1.02675902843,29.5019721985,,,,,-5.66,-7.3,2.35,21.9653530121
-0.143138319254,-0.0291749704629,-1.03507947922,29.5047230721,,,,,-4.7,-8.35,1.89,21.9657189846
-0.140595987439,-0.0264334809035,-1.03549551964,29.5071160793,,,,,-3.73,-10.7,0.98,21.9660830498
-0.129978626966,-0.0205919947475,-1.04100894928,29.5095081329,,,,,-4.65,-10.63,0.63,21.9664471149
-0.125136554241,-0.0095154736191,-1.04340565205,29.5489430428,,,,,-7.95,-7.22,0.02,21.9673671722
-0.122391030192,-0.0104764476418,-1.03681063652,29.5516550541,,,,,-8.2,-5.2,-0.4,21.9677209854
-0.126264661551,-0.0137846488506,-1.02770364285,29.5540862083,,,,,-6.45,-4.05,-0.96,21.9680700302
-0.12852679193,-0.000110609456897,-1.02192139626,29.5564830303,,,,,1.08,-5.44,-2.08,21.9684331417
-0.12117792666,0.00191653333604,-1.01159381866,29.5588769913,,,,,3.85,-7.1,-2.4,21.9687972069
-0.131435990334,-0.00840516202152,-1.00912463665,29.5979700089,,,,,4.0,-8.22,-2.5,21.9691641331
-0.140975400805,-0.0148430187255,-1.02602410316,29.6003580093,,,,,-2.17,-6.87,-2.8,21.9700701237
-0.139962777495,-0.0209698770195,-1.04453110695,29.6027510166,,,,,-3.95,-1.72,-4.59,21.9704630375
-0.144792661071,-0.0206989403814,-1.05434083939,29.6052541733,,,,,0.09,-1.97,-4.77,22.0078141689
-0.145114302635,-0.0202597305179,-1.06030905247,29.6076471806,,,,,3.86,-3.23,-4.37,22.0081791878
-0.141802296042,-0.0202740300447,-1.06452941895,29.6461331844,,,,,3.19,-5.88,-2.26,22.0085442066
-0.137682124972,-0.0247478391975,-1.06379199028,29.6485249996,,,,,-1.64,-6.0,-1.25,22.0094521046
-0.141858816147,-0.0250191930681,-1.04215753078,29.650919199,,,,,-12.9,-2.6,-0.63,22.0098440647
-0.138715654612,-0.0299437846988,-1.01706469059,29.6533491611,,,,,-6.99,-3.11,0.0,22.0102081299
-0.125602439046,-0.0250470321625,-1.017395854,29.6895301342,,,,,-3.45,-4.36,0.88,22.0105731487
-0.121825307608,-0.0145894754678,-1.0476218462,29.6919250488,,,,,-2.16,-5.59,1.9,22.0109372139
-0.128633007407,-0.0200869906694,-1.05567479134,29.6943590641,,,,,-7.02,-6.1,3.03,22.0118441582
-0.131859838963,-0.0257029365748,-1.04046165943,29.6967492104,,,,,-11.67,-5.01,1.58,22.0122361183
-0.128512039781,-0.028486257419,-1.02007508278,29.6991400719,,,,,-8.85,-5.3,1.17,22.0125989914
-0.109498500824,-0.00932146422565,-1.00343990326,29.7488820553,,,,,-5.4,-5.69,1.04,22.0130000114
-0.11396792531,-0.00394742097706,-1.0043514967,29.7512750626,,,,,-2.08,-5.72,1.21,22.0133640766
-0.11930911243,-0.00415820814669,-0.994225382805,29.7537071705,,,,,-2.76,-5.38,1.11,22.0142710209
-0.12771910429,0.000277504324913,-0.986039876938,29.7561051846,,,,,-6.32,-5.76,0.09,22.0146641731
-0.129446357489,-0.00895759277046,-1.00617861748,29.7585000992,,,,,-6.11,-6.32,-0.09,22.0150279999
-0.13088978827,-0.0206828769296,-1.044516325,29.7983150482,,,,,-5.5,-6.3,0.16,22.0153930187
-0.131134942174,-0.0208323877305,-1.08771169186,29.8007111549,,,,,-5.6,-5.69,0.41,22.0157561302
-0.130002647638,-0.0283428449184,-1.12016320229,29.803456068,,,,,-4.99,-4.8,0.59,22.0166671276
-0.12843324244,-0.0279253330082,-1.14135420322,29.8058490753,,,,,-1.92,-5.96,-0.05,22.0170600414
-0.12873595953,-0.027725784108,-1.15268516541,29.8082439899,,,,,-1.22,-7.06,-0.59,22.0174231529
-0.130630105734,-0.0306996386498,-1.15408062935,29.848949194,,,,,-3.08,-6.7,-0.55,22.0177869797
-0.140418857336,-0.0325624421239,-1.14905524254,29.8513431549,,,,,-7.9,-4.63,-0.18,22.0181519985
-0.154194131494,-0.0312689393759,-1.161480546,29.8537809849,,,,,-7.93,-3.94,-0.17,22.0563499928
-0.139844059944,-0.0353754535317,-1.17685639858,29.8561739922,,,,,1.5,-4.88,-1.19,22.0567450523
-0.126090317965,-0.0321930199862,-1.19015955925,29.8585691452,,,,,3.01,-5.24,-1.38,22.0571100712
-0.132192358375,-0.0411878824234,-1.18114292622,29.8976950645,,,,,-1.96,-4.08,-1.18,22.05747509
-0.144965648651,-0.0528297051787,-1.16803896427,29.9000880718,,,,,-6.03,-2.94,-1.28,22.0578391552
-0.146139398217,-0.0422382876277,-1.1684371233,29.9024820328,,,,,-8.17,-1.24,-2.55,22.0587470531
-0.119440436363,-0.0348709896207,-1.15970826149,29.904916048,,,,,-0.74,-1.32,-3.71,22.0591402054
-0.100973807275,-0.0318296998739,-1.15746545792,29.9422430992,,,,,3.16,-2.04,-2.25,22.0595030785
-0.0976416170597,-0.0333784297109,-1.15044391155,29.9446721077,,,,,0.49,-2.12,-0.84,22.05986619
-0.112245470285,-0.027678353712,-1.13345718384,29.9470641613,,,,,-9.52,-1.81,0.84,22.0602300167
-0.117689356208,-0.0100886654109,-1.15068542957,29.949450016,,,,,-12.86,-1.67,0.64,22.0611360073
-0.126257672906,-0.00652401149273,-1.14831459522,29.9518470764,,,,,-8.38,-2.57,0.12,22.0615301132
-0.138884425163,-0.0221725441515,-1.11628997326,29.9888501167,,,,,-6.01,-2.94,1.17,22.0618951321
-0.148542195559,-0.0322158634663,-1.10853767395,29.9912400246,,,,,-7.57,-3.18,4.02,22.0622601509
-0.135126456618,-0.023246159777,-1.10136973858,29.9936690331,,,,,-10.47,-3.11,4.64,22.062623024
-0.128893077374,-0.0174587741494,-1.07847702503,29.9960610867,,,,,-14.33,-3.29,3.54,22.0635671616
-0.158989608288,-0.0279559101909,-1.06147801876,29.9984531403,,,,,-10.81,-3.27,1.64,22.0639619827
-0.163735955954,-0.0305102895945,-1.04615318775,30.0381910801,,,,,-5.38,-2.08,1.45,22.0643570423
-0.148651748896,-0.0177041999996,-1.03637182713,30.0406060219,,,,,-4.03,-1.39,1.72,22.0647270679
-0.152408361435,-0.0192877668887,-1.05081248283,30.0430400372,,,,,-3.52,-1.08,1.78,22.0650920868
-0.134701564908,-0.022105904296,-1.04771637917,30.0454361439,,,,,-3.98,-2.07,1.06,22.0659999847
-0.135336205363,-0.0189028251916,-1.02259194851,30.0478301048,,,,,-4.54,-3.14,-0.33,22.0663940907
-0.141948759556,-0.017351038754,-1.00401210785,30.0875861645,,,,,-4.73,-2.4,-0.44,22.0667581558
-0.135159537196,-0.0242055598646,-0.994046807289,30.0899801254,,,,,-3.49,-1.23,-0.85,22.0671219826
-0.139927357435,-0.0355365872383,-0.986728191376,30.0923690796,,,,,-1.44,-1.56,-1.37,22.0674860477
-0.146764740348,-0.0395716652274,-0.975318193436,30.0948021412,,,,,2.92,-3.38,-2.94,22.1044790745
-0.142182976007,-0.0356903970242,-0.974725008011,30.1308619976,,,,,1.92,-3.27,-3.97,22.1048741341
-0.141257509589,-0.0337263643742,-0.985007166862,30.1332950592,,,,,-3.1,-1.08,-3.94,22.1052381992
-0.141782164574,-0.0294408109039,-0.980201721191,30.1356921196,,,,,-3.85,-0.52,-3.83,22.1056029797
-0.150531724095,-0.0178338605911,-0.97607421875,30.1380851269,,,,,-1.85,-0.85,-3.89,22.1059670448
-0.151953011751,-0.018098955974,-0.977517962456,30.1404681206,,,,,7.17,-2.93,-4.34,22.1068761349
-0.151403069496,-0.0196447465569,-0.977903604507,30.1785171032,,,,,6.83,-2.72,-2.4,22.1072690487
-0.167383819818,-0.0176044497639,-0.979189753532,30.1809082031,,,,,1.69,-1.83,-1.03,22.1076321602
-0.189009904861,-0.0229939501733,-0.990399956703,30.1833331585,,,,,-2.68,-1.5,0.09,22.1079959869
-0.16711306572,-0.011218065396,-0.999576210976,30.1857202053,,,,,-2.06,-2.71,0.57,22.1083600521
-0.150086313486,-0.00290500000119,-0.999404072762,30.1881000996,,,,,2.5,-3.4,0.25,22.1092731953
-0.159293085337,-0.0102375652641,-1.00418245792,30.2284691334,,,,,8.0,-1.81,1.01,22.1096680164
-0.165214821696,-0.0156441424042,-1.00066447258,30.2308621407,,,,,3.39,-0.65,1.94,22.1100320816
-0.171139255166,-0.0141544844955,-1.01011037827,30.2332830429,,,,,-7.18,-0.49,2.52,22.1103961468
-0.175136104226,-0.0120540764183,-1.03624737263,30.2356770039,,,,,-8.83,-1.27,1.8,22.1107602119
-0.176677018404,-0.0062113488093,-1.06432425976,30.2380712032,,,,,-3.74,-2.3,0.14,22.1116931438
-0.195100709796,-0.0173328407109,-1.07448625565,30.2773990631,,,,,0.2,0.0,1.5,22.1120841503
-0.201496124268,-0.0205081049353,-1.09568238258,30.2797880173,,,,,-3.14,0.23,2.18,22.1124491692
-0.195332691073,-0.0220373664051,-1.1304898262,30.2821781635,,,,,-7.12,-0.41,2.29,22.1128480434
-0.192985996604,-0.023569425568,-1.15206229687,30.2846050262,,,,,-10.64,-3.21,1.07,22.1132180691
-0.191919267178,-0.0255908053368,-1.16920185089,30.3207490444,,,,,-9.2,-3.94,0.52,22.1141300201
-0.208144560456,-0.0345104262233,-1.19695627689,30.3231801987,,,,,-1.79,-1.09,1.5,22.1145231724
-0.209257006645,-0.0108519066125,-1.21403372288,30.3255741596,,,,,-1.41,-0.15,1.92,22.1148881912
-0.183758184314,0.0147099439055,-1.19178926945,30.3279662132,,,,,-2.51,-1.23,1.36,22.1152510643
-0.171192735434,0.0256747175008,-1.18592631817,30.3303570747,,,,,-2.72,-2.59,0.74,22.1492540836
-0.182796776295,0.0299209300429,-1.19816601276,30.3689000607,,,,,-1.35,-3.2,0.32,22.1501700878
-0.193197444081,0.0307788271457,-1.1900023222,30.3712911606,,,,,0.39,0.54,2.08,22.150562048
-0.196473181248,0.0216183718294,-1.18968331814,30.373716116,,,,,0.97,0.53,2.31,22.1509270668
-0.196790888906,0.02201946266,-1.19501638412,30.3761069775,,,,,2.01,-0.62,2.17,22.151291132
-0.189201369882,0.0276114661247,-1.18160521984,30.3784990311,,,,,4.79,-3.55,1.4,22.1516561508
-0.200219064951,0.0193494837731,-1.17114818096,30.4182372093,,,,,4.7,-2.71,1.06,22.1525650024
-0.214887499809,0.0172196347266,-1.16846883297,30.4206271172,,,,,1.49,-0.05,0.86,22.1529920101
-0.214466676116,0.0275167468935,-1.1654073,30.4230620861,,,,,1.14,-0.02,0.45,22.153357029
-0.212345570326,0.0198444593698,-1.16519856453,30.4254560471,,,,,6.76,-3.21,-1.07,22.1537210941
-0.221744194627,0.00774757005274,-1.17675685883,30.427850008,,,,,11.04,-4.75,-1.76,22.154086113
-0.207994669676,0.0235406737775,-1.20318114758,30.4662861824,,,,,13.77,-4.2,-1.89,22.1549940109
-0.201708763838,0.0373078510165,-1.21973335743,30.4686741829,,,,,6.11,-1.31,-0.74,22.1553881168
-0.186836048961,0.0578465163708,-1.21719813347,30.4710671902,,,,,0.68,-2.27,-0.14,22.1557509899
-0.188169062138,0.0528630912304,-1.20609891415,30.4735021591,,,,,2.84,-4.15,-0.27,22.1561150551
-0.20341964066,0.0455065071583,-1.19191050529,30.5098781586,,,,,11.37,-6.08,-0.12,22.1564791203
-0.1849373281,0.0580147132277,-1.16823852062,30.5122621059,,,,,13.23,-5.08,0.56,22.1573901176
-0.180487006903,0.0654745027423,-1.15075075626,30.5146901608,,,,,1.32,-1.19,3.3,22.1577839851
-0.175004839897,0.0661579966545,-1.15933513641,30.5170772076,,,,,-2.66,-2.21,3.23,22.158149004
-0.174416810274,0.0792080461979,-1.1790779829,30.5194690228,,,,,-0.92,-5.51,1.77,22.1585130692
-0.19141292572,0.0726637616754,-1.17710769176,30.5585670471,,,,,3.14,-5.9,1.11,22.1588749886
-0.196176350117,0.0456412807107,-1.17567539215,30.5609571934,,,,,8.17,-2.64,1.12,22.1597859859
-0.188887566328,0.0413633063436,-1.18007385731,30.5633890629,,,,,3.57,0.12,1.35,22.1972970963
-0.196375355124,0.0606768429279,-1.17262589931,30.5657830238,,,,,-3.69,-2.45,-0.17,22.1976671219
-0.218605071306,0.0545771867037,-1.18578374386,30.5681731701,,,,,-4.83,-4.33,-1.14,22.1980340481
-0.208261325955,0.0578267276287,-1.19668054581,30.6087779999,,,,,-2.47,-4.47,-1.71,22.1983981133
-0.190763264894,0.0856226980686,-1.18619060516,30.6111721992,,,,,-0.61,-2.63,-1.24,22.199311018
-0.199344605207,0.0868665277958,-1.19559645653,30.6135971546,,,,,0.69,-0.31,-0.66,22.1997041702
-0.182647481561,0.100602015853,-1.21251142025,30.6159920692,,,,,-0.17,-2.14,-1.27,22.200067997
-0.173046380281,0.0977603197098,-1.22577655315,30.6183891296,,,,,-0.8,-5.43,-2.18,22.2004330158
-0.181657165289,0.105024963617,-1.24696207047,30.656083107,,,,,-0.34,-5.13,-1.97,22.2007980347
-0.205404296517,0.102956049144,-1.24241507053,30.6584720612,,,,,2.05,-1.85,-0.85,22.2017190456
-0.220213398337,0.0977503508329,-1.22216618061,30.6611790657,,,,,3.66,-0.74,-0.5,22.2020680904
-0.204417049885,0.103391416371,-1.21336698532,30.6636140347,,,,,5.38,-1.06,-0.56,22.202434063
-0.202410638332,0.101339682937,-1.2093385458,30.6994001865,,,,,8.27,-4.62,-1.29,22.2028291225
-0.197545811534,0.0912878364325,-1.21107339859,30.7017970085,,,,,8.85,-5.82,-1.5,22.2032001019
-0.188375011086,0.104147039354,-1.2122232914,30.704226017,,,,,8.47,-5.62,-1.43,22.2035651207
-0.173248097301,0.120649784803,-1.21570825577,30.7066221237,,,,,4.95,-2.35,-0.86,22.2044761181
-0.168562352657,0.104199118912,-1.22187483311,30.7090160847,,,,,3.33,-3.24,-0.9,22.2048690319
-0.16954472661,0.106553420424,-1.21226644516,30.7486841679,,,,,5.6,-5.53,-0.9,22.2052340508
-0.15808364749,0.110480755568,-1.20889246464,30.7510790825,,,,,10.42,-7.39,-0.5,22.2055990696
-0.17510458827,0.0891377180815,-1.21491599083,30.7535090446,,,,,10.34,-6.21,-0.12,22.2059640884
-0.193326294422,0.087208904326,-1.23825466633,30.7559010983,,,,,4.81,-3.37,0.12,22.2068731785
-0.157343268394,0.08165371418,-1.25924611092,30.758297205,,,,,0.15,-5.36,-0.26,22.207267046
-0.148351684213,0.0938264280558,-1.2444909811,30.7978420258,,,,,4.59,-9.49,-0.52,22.2076301575
-0.161924213171,0.102577403188,-1.22051787376,30.8002331257,,,,,8.38,-9.83,-0.37,22.2079951763
-0.148122772574,0.0962540879846,-1.19056975842,30.8026239872,,,,,10.88,-8.75,-0.08,22.2083590031
-0.146429106593,0.0880975499749,-1.17079365253,30.8050541878,,,,,8.61,-6.06,0.18,22.2464849949
-0.154587760568,0.0855647325516,-1.174284935,30.8425381184,,,,,-0.38,-10.05,-0.92,22.2468810081
-0.161635190248,0.0983779206872,-1.17290139198,30.8451640606,,,,,0.42,-11.64,-1.2,22.247246027
-0.168857589364,0.104907661676,-1.17817044258,30.8475580215,,,,,3.13,-11.89,-1.13,22.2476100922
-0.172561436892,0.116098254919,-1.1860563755,30.8499510288,,,,,8.66,-9.3,0.16,22.247975111
-0.162096649408,0.130678415298,-1.19149684906,30.8523440361,,,,,9.08,-8.39,1.02,22.2488861084
-0.155665934086,0.125596821308,-1.19931924343,30.8893611431,,,,,1.09,-12.59,1.83,22.2492780685
-0.143432110548,0.119367659092,-1.18314135075,30.8917551041,,,,,-1.23,-13.93,1.57,22.2496430874
-0.134395807981,0.11547985673,-1.16863417625,30.8942101002,,,,,-1.01,-12.63,1.39,22.2500071526
-0.136515766382,0.0817343816161,-1.17197191715,30.8966031075,,,,,0.76,-10.89,1.72,22.2503721714
-0.127168416977,0.102177105844,-1.16072833538,30.8989930153,,,,,4.15,-10.44,2.46,22.251281023
-0.110803723335,0.126958742738,-1.13993763924,30.9383871555,,,,,2.81,-14.34,2.42,22.2516720295
-0.0951936915517,0.114462122321,-1.137560606,30.9407761097,,,,,-0.87,-15.82,1.49,22.2520360947
-0.0825556516647,0.123719707131,-1.11722576618,30.9432001114,,,,,-1.81,-14.44,1.03,22.2524011135
-0.0795154124498,0.12709967792,-1.09710860252,30.945595026,,,,,-0.22,-10.99,0.35,22.2527651787
-0.090512983501,0.13753439486,-1.1062296629,30.9479901791,,,,,2.03,-10.9,0.12,22.2537190914
-0.133716031909,0.140373781323,-1.12944817543,30.988090992,,,,,7.05,-16.0,0.12,22.2541120052
-0.141292005777,0.130682721734,-1.13986122608,30.990486145,,,,,6.78,-16.7,0.18,22.2544770241
-0.109011769295,0.160422876477,-1.13898515701,30.9929161072,,,,,3.64,-14.74,-0.13,22.2548410892
-0.124746739864,0.149276033044,-1.11486446857,30.9953100681,,,,,1.45,-13.37,-0.52,22.2552061081
-0.147392466664,0.127766504884,-1.10983788967,31.0322861671,,,,,-0.6,-13.36,-1.09,22.2561089993
-0.155244916677,0.114952400327,-1.11190545559,31.0347220898,,,,,1.84,-16.47,-0.59,22.2565011978
-0.154056072235,0.109247088432,-1.08511543274,31.0371170044,,,,,5.35,-18.23,-0.21,22.2568650246
-0.158260554075,0.107093632221,-1.08541858196,31.0395171642,,,,,5.34,-18.1,-0.59,22.2572290897
-0.158899143338,0.0939179211855,-1.08843910694,31.0419080257,,,,,0.88,-17.45,-1.77,22.2575931549
-0.15165476501,0.114374145865,-1.08766520023,31.0786311626,,,,,-1.44,-17.69,-1.97,22.2930390835
-0.166101410985,0.129186019301,-1.07456767559,31.0810260773,,,,,2.7,-19.45,0.16,22.2934331894
-0.170691281557,0.133458092809,-1.08148145676,31.0834531784,,,,,6.91,-19.77,0.66,22.2937991619
-0.175314024091,0.139761254191,-1.10410451889,31.0858521461,,,,,10.93,-19.91,0.01,22.2941641808
-0.180152624846,0.130316600204,-1.10878264904,31.0882480145,,,,,9.22,-19.99,-0.68,22.2945280075
-0.159299045801,0.11244571209,-1.13219332695,31.1290450096,,,,,2.69,-19.94,-1.03,22.2954380512
-0.153532654047,0.112502917647,-1.14078271389,31.1314342022,,,,,1.98,-18.84,-0.01,22.2958312035
-0.157134115696,0.137444362044,-1.14838373661,31.1338751316,,,,,8.09,-17.57,0.2,22.2961950302
-0.174102932215,0.138519212604,-1.15985369682,31.1362559795,,,,,10.71,-17.47,-0.29,22.2965600491
-0.187705770135,0.126066401601,-1.17178404331,31.1386501789,,,,,9.87,-18.37,-1.19,22.2969241142
-0.188871532679,0.13367651403,-1.17675101757,31.1776330471,,,,,7.53,-18.92,-1.25,22.2978320122
-0.194546431303,0.140706434846,-1.17996108532,31.1800220013,,,,,4.33,-18.92,-0.52,22.2982251644
-0.202856317163,0.146804407239,-1.20563423634,31.1824150085,,,,,5.84,-18.8,-0.54,22.2985870838
-0.191194534302,0.156765803695,-1.21597850323,31.184841156,,,,,9.59,-19.58,-0.58,22.298951149
-0.19169741869,0.140774533153,-1.23279798031,31.2224500179,,,,,10.43,-20.43,-0.24,22.2993152142
-0.199915379286,0.134518131614,-1.23429834843,31.2248821259,,,,,9.71,-22.42,0.97,22.3002240658
-0.215323850513,0.138696804643,-1.23075711727,31.2275910378,,,,,6.43,-23.45,1.81,22.3006150723
-0.202906146646,0.150470212102,-1.26319253445,31.2299861908,,,,,4.41,-23.66,1.25,22.3009800911
-0.211835503578,0.140836969018,-1.28000950813,31.232378006,,,,,4.82,-23.52,0.88,22.3013432026
-0.226985991001,0.147103711963,-1.28662240505,31.2688741684,,,,,6.29,-23.34,0.79,22.3017091751
-0.206822529435,0.173446789384,-1.26377356052,31.2712731361,,,,,10.44,-23.51,1.84,22.3026161194
-0.19379298389,0.182890340686,-1.23555648327,31.2737030983,,,,,9.07,-25.56,3.53,22.3030340672
-0.203729078174,0.162474855781,-1.21584784985,31.2760961056,,,,,6.42,-26.14,3.19,22.3034000397
-0.211267307401,0.137449935079,-1.22974348068,31.2784881592,,,,,3.95,-25.49,1.82,22.3037641048
-0.22394862771,0.127748191357,-1.26325523853,31.318156004,,,,,5.13,-24.35,1.57,22.3390791416
-0.204814851284,0.157420530915,-1.28941226006,31.3205502033,,,,,7.65,-23.22,1.77,22.3399891853
-0.184560954571,0.160114482045,-1.29443800449,31.323018074,,,,,10.1,-23.61,2.94,22.3404011726
-0.169843256474,0.146305575967,-1.27041482925,31.3254201412,,,,,2.86,-25.73,1.43,22.3407812119
-0.169622644782,0.124909862876,-1.26484823227,31.3278141022,,,,,-0.23,-25.75,0.37,22.3411450386
-0.179358676076,0.0985642671585,-1.31566560268,31.3677501678,,,,,-1.43,-24.84,-0.24,22.3415122032
-0.184130817652,0.0603110492229,-1.36762082577,31.3701469898,,,,,2.4,-22.0,0.24,22.3424191475
-0.160089567304,0.0821397900581,-1.37286770344,31.3725380898,,,,,5.23,-22.52,0.88,22.3428390026
-0.150903910398,0.111952766776,-1.37106513977,31.3749740124,,,,,2.26,-23.56,0.02,22.3432071209
-0.159471392632,0.0944264307618,-1.36406517029,31.410859108,,,,,-1.21,-24.1,-0.92,22.3435730934
-0.143778979778,0.0869064182043,-1.31796693802,31.4133040905,,,,,-4.38,-22.71,-1.2,22.3439371586
-0.133723288774,0.103808932006,-1.29912507534,31.4156990051,,,,,-2.82,-21.37,-0.41,22.3448450565
-0.143353521824,0.10693269968,-1.35110533237,31.4180901051,,,,,3.75,-20.4,1.61,22.3452382088
-0.123341798782,0.108227342367,-1.35544419289,31.4204800129,,,,,3.52,-20.94,1.23,22.3456020355
-0.117363601923,0.114178061485,-1.35001015663,31.4585771561,,,,,1.26,-21.0,0.28,22.3459661007
-0.111384570599,0.106006100774,-1.36047780514,31.4609680176,,,,,1.18,-20.24,0.39,22.3463280201
-0.113520145416,0.0748996734619,-1.37513184547,31.4634010792,,,,,4.17,-18.95,1.65,22.3472340107
-0.13637547195,0.0488989427686,-1.35990059376,31.4657931328,,,,,7.45,-19.83,2.49,22.3476271629
-0.114478647709,0.0819568783045,-1.34316730499,31.4681811333,,,,,7.61,-19.79,2.17,22.3479909897
-0.108347505331,0.105735108256,-1.32081341743,31.5086321831,,,,,8.11,-19.03,1.89,22.3483550549
-0.10231833905,0.0767697393894,-1.30540764332,31.5110321045,,,,,10.44,-16.55,1.71,22.34871912
-0.0712752193213,0.0818838775158,-1.24036717415,31.5134592056,,,,,11.12,-15.73,1.71,22.3496291637
-0.0891756564379,0.0825614258647,-1.20381867886,31.5161681175,,,,,7.62,-16.62,1.0,22.3871440887
-0.0815480723977,0.0948319509625,-1.20740914345,31.5185580254,,,,,6.86,-16.71,0.55,22.3875110149
-0.0556891486049,0.105277642608,-1.23460292816,31.5573840141,,,,,10.45,-14.88,0.04,22.3878731728
-0.0834807753563,0.108782172203,-1.22938871384,31.5597770214,,,,,13.37,-13.48,0.07,22.3882369995
-0.0915082544088,0.119026958942,-1.24972271919,31.5621709824,,,,,15.0,-12.38,0.27,22.3891470432
-0.0937839746475,0.129547342658,-1.29776775837,31.5646049976,,,,,6.71,-14.32,-0.44,22.3895401955
-0.112275019288,0.146241441369,-1.28752362728,31.6008481979,,,,,6.86,-14.23,-0.97,22.389906168
-0.118053302169,0.135426208377,-1.26844072342,31.6032931805,,,,,9.5,-13.43,-1.29,22.3902690411
-0.110221683979,0.141799494624,-1.26870572567,31.6056911945,,,,,17.02,-11.48,-0.91,22.3906350136
-0.108559623361,0.152182236314,-1.26685130596,31.6080870628,,,,,16.37,-11.76,0.51,22.3915421963
-0.123745799065,0.122296079993,-1.27562081814,31.6104810238,,,,,8.83,-13.47,1.22,22.3919332027
-0.12923489511,0.128585860133,-1.23237931728,31.6492722034,,,,,7.05,-13.82,1.05,22.3922979832
-0.111372038722,0.153010591865,-1.20558488369,31.6516652107,,,,,10.79,-12.97,0.91,22.3926610947
-0.104020506144,0.180376335979,-1.18193674088,31.6540970802,,,,,13.96,-12.42,1.39,22.393061161
-0.128790840507,0.152503564954,-1.18064713478,31.656493187,,,,,14.64,-12.31,3.2,22.3939681053
-0.120834246278,0.154409691691,-1.21154749393,31.658891201,,,,,6.34,-13.13,4.02,22.3943681717
-0.103100329638,0.185957565904,-1.19803380966,31.6983389854,,,,,0.99,-13.32,2.81,22.3947160244
-0.105900347233,0.179656252265,-1.20400321484,31.7007319927,,,,,1.54,-13.04,2.02,22.3950791359
-0.117842644453,0.147118464112,-1.20869112015,31.7031590939,,,,,5.2,-12.26,1.06,22.3954432011
-0.10281470418,0.151197269559,-1.16301238537,31.7055511475,,,,,6.08,-12.01,0.68,22.396351099
-0.0920879095793,0.153979465365,-1.143846035,31.7079460621,,,,,1.5,-11.88,-1.54,22.3967440128
-0.0913128554821,0.142538562417,-1.14386820793,31.7462770939,,,,,0.86,-12.08,-2.47,22.397108078
-0.113233581185,0.139491066337,-1.12334823608,31.7486670017,,,,,2.7,-12.34,-3.26,22.3974730968
-0.119863495231,0.113121837378,-1.06759631634,31.7510631084,,,,,3.96,-12.32,-3.08,22.3978390694
-0.123022213578,0.116560205817,-1.0497648716,31.75349617,,,,,4.27,-12.21,-2.61,22.436065197
-0.14142781496,0.13298073411,-1.01016438007,31.7894561291,,,,,3.48,-12.96,-2.81,22.4364590645
-0.148419052362,0.119597777724,-0.994871973991,31.7918541431,,,,,4.82,-14.39,-2.99,22.4368231297
-0.14601072669,0.107714578509,-0.961679697037,31.7942872047,,,,,5.34,-14.75,-2.73,22.4371891022
-0.148397043347,0.116889387369,-0.928313314915,31.7966771126,,,,,4.58,-14.69,-2.2,22.4375550747
-0.165386408567,0.106194920838,-0.938774347305,31.7990729809,,,,,0.42,-14.38,-1.32,22.4384651184
-0.154560551047,0.075026139617,-0.953257143497,31.838337183,,,,,1.25,-17.48,-1.69,22.4388580322
-0.106445893645,0.0522141754627,-0.974113404751,31.8407251835,,,,,4.44,-18.75,-2.0,22.4392220974
-0.0733254253864,0.0442940294743,-0.983033537865,31.8431529999,,,,,7.69,-18.86,-1.75,22.4395852089
-0.0745720416307,0.076712988317,-1.01605010033,31.8455471992,,,,,6.11,-18.14,-1.14,22.4399490356
-0.056704044342,0.135330840945,-1.05929613113,31.8479411602,,,,,1.0,-18.51,-0.04,22.4408841133
-0.0284713171422,0.150344267488,-1.07162201405,31.8886091709,,,,,1.32,-22.26,0.35,22.4412770271
-0.00786315649748,0.168206140399,-1.04801857471,31.8909890652,,,,,7.05,-24.76,0.84,22.4416401386
-0.00632969848812,0.179408237338,-1.03506267071,31.89341712,,,,,8.17,-24.21,1.67,22.442002058
-0.00198108702898,0.163290336728,-1.02864289284,31.8958091736,,,,,6.8,-23.12,2.89,22.4423661232
0.0232042744756,0.152367040515,-1.00510931015,31.8981981277,,,,,-0.34,-23.02,5.15,22.4433112144
0.0309028439224,0.161055877805,-1.01129806042,31.9360551834,,,,,-3.46,-28.71,4.62,22.4437031746
0.0466624498367,0.16961748898,-1.00365924835,31.9384469986,,,,,-1.73,-28.74,3.98,22.4440681934
0.0616649836302,0.161122575402,-0.990979075432,31.9408400059,,,,,-0.18,-27.12,3.6,22.4444332123
0.0589611828327,0.132497936487,-0.983505725861,31.9432730675,,,,,-1.25,-22.71,3.86,22.444797039
0.0644155815244,0.159890130162,-0.967245638371,31.9795300961,,,,,-3.38,-22.47,3.88,22.4457051754
0.0783445388079,0.205589517951,-0.961254239082,31.9819161892,,,,,-7.24,-28.5,1.4,22.4460980892
0.0802771747112,0.176974162459,-0.969670832157,31.9843401909,,,,,-6.69,-28.77,0.43,22.4464621544
0.0882432684302,0.16427244246,-0.950931072235,31.9867310524,,,,,-4.14,-24.05,-0.42,22.4468271732
0.10055514425,0.185599818826,-0.953805446625,31.9891190529,,,,,-3.25,-21.25,-0.42,22.447191
0.10234734416,0.169807776809,-0.967088997364,32.028717041,,,,,-3.2,-21.42,-0.88,22.4829881191
0.107009708881,0.148385033011,-0.947913765907,32.0311100483,,,,,-5.81,-28.25,-1.95,22.4833841324
0.104964517057,0.162320241332,-0.931824207306,32.0335390568,,,,,-6.54,-27.62,-1.82,22.4837491512
0.103790469468,0.167549684644,-0.920631229877,32.035929203,,,,,-6.47,-25.25,-1.55,22.484112978
0.0938626676798,0.164130285382,-0.944581508636,32.038323164,,,,,-4.19,-20.41,-1.39,22.4844779968
0.0887726396322,0.170406803489,-0.968513309956,32.0779290199,,,,,-2.71,-20.14,-1.64,22.4853870869
0.08382948488,0.185851052403,-0.964580655098,32.0803229809,,,,,-1.31,-24.93,-2.63,22.4857821465
0.079009577632,0.17022202909,-0.980090379715,32.0827171803,,,,,-2.33,-24.99,-2.7,22.486148119
0.0636819154024,0.158498093486,-1.01915955544,32.0851471424,,,,,-3.31,-21.71,-3.2,22.4865109921
0.0580173879862,0.168755337596,-1.03082406521,32.0875380039,,,,,-2.71,-19.77,-3.61,22.4868741035
0.0576735287905,0.177142426372,-1.04386115074,32.1262710094,,,,,0.19,-18.74,-4.27,22.4877831936
0.0376647338271,0.148740634322,-1.06138646603,32.1286621094,,,,,1.76,-20.29,-3.87,22.4881751537
0.0331483781338,0.144377872348,-1.10053312778,32.1310560703,,,,,-0.81,-20.75,-3.42,22.4885389805
0.0285086613148,0.148570999503,-1.13131785393,32.1335391998,,,,,-3.06,-20.4,-3.6,22.4889039993
0.0198533907533,0.159254923463,-1.13372612,32.1693060398,,,,,-6.08,-19.92,-4.06,22.4892671108
0.0282234493643,0.144492730498,-1.14303982258,32.1717021465,,,,,-6.06,-20.07,-3.77,22.4901750088
0.0312373768538,0.12903316319,-1.14513599873,32.1741352081,,,,,-1.4,-20.8,-0.95,22.490568161
0.0402917601168,0.139897510409,-1.13257372379,32.176607132,,,,,-0.99,-21.04,-0.27,22.4909319878
0.0554421544075,0.14235509932,-1.13993704319,32.1790001392,,,,,-3.53,-21.86,-0.28,22.4912970066
0.0449293628335,0.155164167285,-1.12346494198,32.2184860706,,,,,-5.4,-22.35,-0.46,22.4916620255
0.0366119891405,0.152077332139,-1.11607456207,32.2208800316,,,,,-5.93,-22.28,0.09,22.4925692081
0.0362126901746,0.141325458884,-1.12706148624,32.2233171463,,,,,-0.39,-21.2,1.22,22.4929862022
0.0143240299076,0.133776947856,-1.11796581745,32.2257051468,,,,,3.47,-20.76,1.48,22.493350029
0.00427433848381,0.142087265849,-1.13732099533,32.228094101,,,,,3.02,-21.09,1.02,22.5287451744
0.0141034331173,0.153109326959,-1.14215767384,32.2683491707,,,,,-1.09,-21.36,0.21,22.5291111469
-0.00316015258431,0.156187340617,-1.12277007103,32.2707409859,,,,,-2.49,-21.01,0.03,22.530023098
-0.0186432488263,0.149004116654,-1.12947189808,32.2731721401,,,,,0.18,-19.83,0.18,22.5304150581
0.00496412441134,0.142183557153,-1.12448751926,32.2755680084,,,,,1.15,-20.13,0.05,22.5307769775
0.0356933511794,0.130591720343,-1.10308659077,32.3121771812,,,,,0.58,-21.06,-0.58,22.5311419964
0.0446846336126,0.141384765506,-1.09316670895,32.3146190643,,,,,-0.35,-20.96,-0.85,22.5315041542
0.0622246786952,0.146814718843,-1.07011687756,32.3170092106,,,,,-2.24,-19.53,-0.91,22.5324120522
0.0532371327281,0.136381998658,-1.06913995743,32.3194060326,,,,,-3.78,-18.75,-0.75,22.5328371525
0.0301578305662,0.129952251911,-1.06571757793,32.3217921257,,,,,-5.86,-19.63,-0.87,22.5332050323
0.0246577486396,0.14231608808,-1.05620062351,32.3595302105,,,,,-5.81,-19.99,-1.15,22.5335710049
0.0276658032089,0.130850479007,-1.07194948196,32.3619229794,,,,,-2.99,-18.81,-1.67,22.5339369774
0.0420000404119,0.138014420867,-1.08542346954,32.3643519878,,,,,-1.63,-17.48,-1.84,22.5348460674
0.0440354272723,0.165094479918,-1.07503581047,32.3667471409,,,,,-4.98,-15.89,-2.7,22.5352380276
0.0283712800592,0.161739036441,-1.04437041283,32.3691430092,,,,,-7.43,-16.33,-3.07,22.5356020927
0.0175373610109,0.129699259996,-1.03439891338,32.4089281559,,,,,-7.16,-16.79,-3.59,22.5359661579
0.0336076393723,0.134937420487,-1.02819681168,32.4113202095,,,,,-3.94,-16.26,-3.43,22.5363311768
0.0304113812745,0.150241985917,-1.04430902004,32.4137480259,,,,,2.36,-14.84,-2.42,22.5372390747
0.029910793528,0.141563639045,-1.0580701828,32.4161400795,,,,,-0.21,-15.35,-1.49,22.5376310349
0.0413381755352,0.148312285542,-1.05496835709,32.4185299873,,,,,-7.91,-16.79,-1.07,22.5379951
0.0518966801465,0.154919877648,-1.03564321995,32.4576370716,,,,,-9.56,-16.83,-0.71,22.5383591652
0.0481484234333,0.144160673022,-1.0362380743,32.4600222111,,,,,-8.41,-16.28,-0.18,22.538724184
0.0289804302156,0.12346239388,-1.02539336681,32.4624140263,,,,,-2.37,-14.55,1.1,22.5396301746
0.0411272123456,0.127336770296,-1.02880692482,32.4648430347,,,,,-6.22,-16.31,0.33,22.5769920349
0.0497230142355,0.143291041255,-1.03164720535,32.5022170544,,,,,-10.56,-17.26,-0.36,22.5773580074
0.0440602824092,0.122724607587,-1.01046073437,32.5046491623,,,,,-13.55,-17.6,-0.85,22.5777220726
0.0256209950894,0.116274014115,-1.00627982616,32.5070362091,,,,,-12.1,-15.79,-0.93,22.5780861378
0.0223856642842,0.140478089452,-0.983303189278,32.5094230175,,,,,-9.07,-14.27,-0.74,22.5789961815
0.0230829212815,0.135840371251,-0.965542137623,32.5118200779,,,,,-6.69,-14.29,-1.91,22.5793890953
0.0187205616385,0.117521435022,-0.959548950195,32.5491471291,,,,,-11.28,-16.82,-2.54,22.5797522068
0.0288562327623,0.12316647172,-0.972700476646,32.5515451431,,,,,-12.14,-17.33,-2.2,22.5801169872
0.0257906261832,0.137823030353,-0.97458511591,32.5539751053,,,,,-11.37,-16.93,-1.45,22.5804810524
0.0236286390573,0.142302259803,-0.986992955208,32.5563671589,,,,,-7.51,-14.53,-0.03,22.5813891888
0.0261787436903,0.140798285604,-0.975894331932,32.5587630272,,,,,-7.8,-13.88,0.1,22.5817840099
0.022872094065,0.147477522492,-0.954422950745,32.5981171131,,,,,-8.83,-14.91,0.09,22.5821471214
0.017566204071,0.153429999948,-0.941532790661,32.6005101204,,,,,-9.12,-15.94,0.19,22.5825121403
