acc x,acc y,acc z,accTime,com x,com y,com z,comTime,gyro x,gyro y,gyro z,gyroTime
-0.0242347568274,-0.00347596779466,-1.05048596859,60.8572700024,,,,,4.1,34.81,-5.32,60.8553550243
-0.018682744354,0.0265760440379,-1.04720938206,60.8596811295,,,,,3.94,32.11,-5.35,60.8557591438
-0.0206975787878,0.029319120571,-1.05479443073,60.8620841503,,,,,2.56,30.65,-5.11,60.8561251163
-0.0260156467557,0.00998201407492,-1.04516375065,60.8646249771,,,,,1.4,29.32,-4.52,60.8564920425
-0.022932652384,0.0111066717654,-1.04632842541,60.8670890331,,,,,2.34,29.3,-4.52,60.8568630219
-0.0258970446885,0.0156969856471,-1.03445851803,60.8695020676,,,,,5.23,28.69,-4.91,60.8577890396
-0.0368539690971,0.00413205288351,-1.02855169773,60.8719069958,,,,,4.91,26.03,-4.91,60.8581840992
-0.0454245582223,0.00220037810504,-1.02490699291,60.8743641376,,,,,2.25,23.56,-4.42,60.8585472107
-0.0505111590028,0.00621381215751,-1.0363702774,60.8767681122,,,,,1.05,23.27,-4.24,60.858921051
-0.0477313622832,0.0193152297288,-1.04120624065,60.8792021275,,,,,0.48,23.63,-4.59,60.8592870235
-0.041006565094,0.0282074455172,-1.04194116592,60.8816001415,,,,,0.9,23.39,-4.89,60.8601980209
-0.0465389043093,0.0217818636447,-1.06650471687,60.8840560913,,,,,0.09,19.73,-4.47,60.8605911732
-0.0506938844919,0.0264371987432,-1.07971489429,60.8864581585,,,,,-1.03,18.36,-4.05,60.8609571457
-0.0504915714264,0.0296656955034,-1.07506680489,60.8888549805,,,,,-3.65,16.88,-3.69,60.8613212109
-0.0534499883652,0.0197465214878,-1.0670992136,60.8913271427,,,,,-4.67,16.62,-3.79,60.8616890907
-0.056322067976,0.0151358861476,-1.0671005249,60.8937811852,,,,,-5.22,15.81,-4.0,60.8626000881
-0.0596671551466,0.0253630597144,-1.07471477985,60.8961911201,,,,,-4.93,13.98,-3.39,60.863120079
-0.0495498254895,0.0391022562981,-1.06072700024,60.8986070156,,,,,-4.9,11.19,-2.78,60.8634991646
-0.0383869931102,0.0392463430762,-1.04469752312,60.9010050297,,,,,-5.33,9.81,-2.85,60.8638651371
-0.0495901554823,0.0248598437756,-1.06006836891,60.9034640789,,,,,-6.24,8.68,-3.04,60.8642311096
-0.0474143177271,0.0157720241696,-1.05874717236,60.9058640003,,,,,-7.65,7.25,-3.39,60.8651440144
-0.0385246425867,0.0235145185143,-1.04940640926,60.9082860947,,,,,-6.15,5.95,-2.21,60.8655362129
-0.0516235902905,0.0390191599727,-1.0505361557,60.9106800556,,,,,-5.08,4.71,-1.95,60.8659009933
-0.0579441860318,0.0375229567289,-1.0545938015,60.9131531715,,,,,-4.47,3.06,-2.03,60.8662660122
-0.0433270856738,0.0384841412306,-1.04672586918,60.9155590534,,,,,-5.59,-0.12,-2.79,60.866631031
-0.0413079187274,0.0243868287653,-1.04301965237,60.9179720879,,,,,-6.76,-1.04,-3.34,60.8676171303
-0.0507603436708,0.0100869014859,-1.03845477104,60.9203732014,,,,,-5.65,-0.07,-2.77,60.8680131435
-0.0574959293008,0.0258261803538,-1.03500020504,60.922770977,,,,,-3.71,-0.79,-2.63,60.8683781624
-0.0580188259482,0.0298153255135,-1.03556156158,60.9252340794,,,,,-3.71,-2.11,-2.98,60.8687441349
-0.0496602505445,0.0184839311987,-1.05610013008,60.9276530743,,,,,-4.51,-3.59,-3.48,60.8691082001
-0.0464585274458,0.012173736468,-1.07597792149,60.9300529957,,,,,-6.4,-5.34,-4.22,60.8700251579
-0.0481119528413,0.0268128979951,-1.05888521671,60.9324500561,,,,,-5.37,-3.89,-3.89,60.8704180717
-0.054158039391,0.0478168353438,-1.05435943604,60.9348840714,,,,,-4.92,-3.73,-3.89,60.8707821369
-0.0546536594629,0.0300137419254,-1.0529769659,60.937305212,,,,,-5.04,-4.24,-4.09,60.8711481094
-0.035492643714,0.00856559351087,-1.05679011345,60.939715147,,,,,-6.88,-6.49,-4.54,60.871514082
-0.0335941165686,0.0226545203477,-1.06795966625,60.9421150684,,,,,-7.8,-7.56,-4.54,60.8724300861
-0.044397123158,0.0357059985399,-1.08589148521,60.9445540905,,,,,-6.9,-8.33,-4.14,60.8728690147
-0.044281244278,0.0358914062381,-1.0940130949,60.9469511509,,,,,-6.53,-8.05,-4.12,60.873239994
-0.0490551665425,0.0356034561992,-1.07557547092,60.9493730068,,,,,-7.12,-8.17,-4.31,60.873606205
-0.0487581714988,0.0374452695251,-1.06176805496,60.951772213,,,,,-7.92,-8.63,-4.29,60.8739690781
-0.0401969030499,0.0343789756298,-1.08101975918,60.9542541504,,,,,-8.58,-10.03,-3.77,60.8748810291
-0.0365099459887,0.0374403223395,-1.08776152134,60.956649065,,,,,-6.29,-11.43,-3.55,60.875275135
-0.0303200278431,0.0433291494846,-1.07334458828,60.9590799809,,,,,-4.67,-11.97,-3.67,60.8756401539
-0.0329688191414,0.0340805724263,-1.05391144753,60.9614779949,,,,,-4.61,-11.97,-3.79,60.8760039806
-0.0506345257163,0.0212035197765,-1.05653584003,60.9639151096,,,,,-5.52,-11.72,-3.5,60.8763689995
-0.0564107298851,0.0171684976667,-1.05734407902,60.9663131237,,,,,-5.43,-11.78,-3.17,60.8772861958
-0.0505776405334,0.014501625672,-1.07315969467,60.9687430859,,,,,-1.32,-13.43,-2.97,60.8776910305
-0.0469311848283,0.012588577345,-1.07464456558,60.9711680412,,,,,-0.5,-13.95,-3.13,60.8780930042
-0.0503534376621,0.0163195636123,-1.05599081516,60.9735991955,,,,,-1.17,-13.93,-3.55,60.8784441948
-0.0558011904359,0.018546121195,-1.05178236961,60.9759972095,,,,,-2.22,-13.44,-3.56,60.8788080215
-0.0598527789116,0.0246627312154,-1.05018174648,60.9783921242,,,,,-2.65,-12.78,-3.52,60.879720211
-0.0502442121506,0.0436136648059,-1.06797993183,60.9807851315,,,,,-0.47,-13.6,-3.75,60.8801131248
-0.0340950638056,0.0561121255159,-1.07951807976,60.9832391739,,,,,0.38,-14.65,-4.2,60.8804781437
-0.043266095221,0.0476123020053,-1.09591662884,60.985656023,,,,,-0.34,-14.66,-4.41,60.8808410168
-0.0479607507586,0.0405426025391,-1.0903557539,60.9880530834,,,,,-2.66,-13.67,-4.54,60.8812069893
-0.0566535443068,0.0405923575163,-1.07742333412,60.9904501438,,,,,-3.24,-13.17,-4.49,60.8821179867
-0.0594557747245,0.0394310057163,-1.07601261139,60.9928810596,,,,,-1.13,-13.65,-4.39,60.8825120926
-0.044554784894,0.0359249934554,-1.07509458065,60.9953072071,,,,,-0.54,-13.95,-4.3,60.8829100132
-0.0387235358357,0.0325435400009,-1.06230330467,60.9977140427,,,,,-1.16,-13.64,-4.17,60.8832900524
-0.0475599914789,0.0507254078984,-1.0621008873,61.0001161098,,,,,-2.36,-13.08,-4.06,60.8836610317
-0.0527073442936,0.0701504722238,-1.04939329624,61.0025141239,,,,,-4.68,-12.06,-3.98,60.8845741749
-0.0547113344073,0.0647220611572,-1.07049453259,61.0049891472,,,,,-4.01,-12.25,-4.16,60.8849680424
-0.0483037084341,0.0557609647512,-1.08612060547,61.007392168,,,,,-2.18,-12.41,-4.15,60.8853340149
-0.0528571307659,0.0504865497351,-1.09567940235,61.0097870827,,,,,-1.56,-12.22,-4.16,60.8857011795
-0.0604152008891,0.0616187527776,-1.08557212353,61.0121819973,,,,,-3.11,-11.45,-4.07,60.8860661983
-0.0572441443801,0.0637287721038,-1.0684709549,61.0146160126,,,,,-4.58,-11.14,-4.13,60.8869740963
-0.0529827028513,0.0642132908106,-1.07676506042,61.0170390606,,,,,-4.58,-11.26,-4.38,60.8873670101
-0.0418056249619,0.0699776038527,-1.090015769,61.0194342136,,,,,-3.24,-11.15,-4.29,60.887732029
-0.0303765181452,0.0706575661898,-1.06598222256,61.0218310356,,,,,-1.38,-10.52,-4.05,60.8880980015
-0.0381539165974,0.0910593047738,-1.03479254246,61.0242640972,,,,,-2.1,-10.18,-3.92,60.888461113
-0.0413675904274,0.115447983146,-1.01535880566,61.0266799927,,,,,-4.82,-10.01,-4.08,60.8894240856
-0.0425464585423,0.132397845387,-1.02888214588,61.0291111469,,,,,-4.7,-10.38,-4.29,60.8898210526
-0.0449186339974,0.133845746517,-1.0227265358,61.0315179825,,,,,-2.59,-9.81,-3.91,60.8901951313
-0.0356825664639,0.124853521585,-1.02700901031,61.0339550972,,,,,-2.47,-9.16,-3.61,60.8905670643
-0.034993596375,0.102482035756,-1.03681004047,61.036342144,,,,,-3.33,-8.58,-3.37,60.8909320831
-0.0536542236805,0.0958140864968,-1.02836859226,61.038765192,,,,,-5.98,-9.3,-3.58,60.8918440342
-0.0883502215147,0.0925527587533,-1.03254663944,61.0411651134,,,,,-2.99,-10.16,-3.72,60.8922381401
-0.104743376374,0.0798982679844,-1.03887426853,61.0435900688,,,,,-2.03,-9.6,-3.42,60.892603159
-0.100231789052,0.0698307156563,-1.06026124954,61.0459911823,,,,,-3.44,-7.23,-2.86,60.8930160999
-0.0957702547312,0.0678872987628,-1.07061755657,61.0483880043,,,,,-5.03,-6.52,-2.87,60.8933830261
-0.0938885435462,0.0551426559687,-1.06519556046,61.0508069992,,,,,-5.07,-7.9,-3.59,60.894299984
-0.0981129258871,0.0319106429815,-1.08179938793,61.0532422066,,,,,-0.18,-10.01,-4.25,60.8946931362
-0.0901209488511,0.0329056754708,-1.09401595592,61.0556399822,,,,,0.75,-8.24,-3.9,60.8950572014
-0.081330947578,0.03541213274,-1.11368763447,61.0580341816,,,,,-1.12,-6.44,-3.83,60.8954231739
-0.0730704516172,0.0311045628041,-1.12378299236,61.0604281425,,,,,-3.62,-5.18,-4.01,60.8957881927
-0.0504322499037,0.0571970120072,-1.04244220257,61.0638570786,,,,,-4.56,-6.51,-5.16,60.8967080116
-0.0378983393312,0.0562451183796,-1.04420626163,61.0662531853,,,,,1.69,-9.62,-5.42,60.8971011639
-0.0409286394715,0.0440139174461,-1.04845035076,61.0686480999,,,,,0.98,-8.22,-4.78,60.8974671364
-0.0497487261891,0.0499772801995,-1.03131866455,61.0710501671,,,,,-1.68,-6.21,-4.19,60.8978421688
-0.059173874557,0.0549643039703,-1.03609478474,61.0735051632,,,,,-7.87,-4.54,-4.06,60.8982131481
-0.0658440738916,0.0370631664991,-1.04920184612,61.0759050846,,,,,-8.34,-5.77,-4.52,60.8991241455
-0.0600868314505,0.0484721064568,-1.04398870468,61.078305006,,,,,-2.02,-8.66,-4.72,60.8995170593
-0.0487352237105,0.0777005702257,-1.02918457985,61.0807161331,,,,,-1.86,-7.1,-4.04,60.8998811245
-0.0517710000277,0.0780809223652,-1.02585852146,61.0831429958,,,,,-6.65,-3.49,-3.02,60.9002451897
-0.0586389154196,0.0508454889059,-1.04282426834,61.0855619907,,,,,-9.27,-3.37,-3.16,60.9006111622
-0.057736851275,0.0413986891508,-1.05086147785,61.0879590511,,,,,-9.81,-6.09,-4.28,60.9015481472
-0.0549736022949,0.0671755820513,-1.05696082115,61.0903561115,,,,,-5.12,-4.97,-4.41,60.9019420147
-0.0450210943818,0.0956142470241,-1.04207479954,61.0927531719,,,,,-5.67,-3.0,-3.91,60.9023079872
-0.0398284941912,0.0880702883005,-1.0280469656,61.0951859951,,,,,-6.91,-1.91,-3.54,60.9026720524
-0.0436735376716,0.0677917450666,-1.0307867527,61.0976040363,,,,,-9.19,-3.96,-3.58,60.903067112
-0.0511441454291,0.0742250829935,-1.02531719208,61.1000020504,,,,,-9.22,-5.92,-3.82,60.9039812088
-0.0584147125483,0.0668217688799,-1.05133581161,61.1023991108,,,,,-7.87,-5.21,-3.21,60.9043750763
-0.0654640048742,0.0661839172244,-1.05053567886,61.1048281193,,,,,-8.22,-3.28,-2.72,60.9047400951
-0.0657079517841,0.0837358385324,-1.06597328186,61.1072380543,,,,,-8.13,-2.78,-2.53,60.905105114
-0.0575621277094,0.0760551989079,-1.08711588383,61.1096410751,,,,,-7.47,-4.57,-2.85,60.9054691792
-0.0725019276142,0.0805652961135,-1.08002340794,61.1120400429,,,,,-5.78,-7.96,-3.56,60.9063830376
-0.0824331715703,0.091318115592,-1.06762397289,61.1144771576,,,,,-6.56,-5.98,-3.21,60.9067912102
-0.0668734908104,0.0901174917817,-1.05861282349,61.1168730259,,,,,-8.13,-2.35,-2.87,60.9071609974
-0.0531822815537,0.0825579240918,-1.04962110519,61.1512989998,,,,,-7.67,-2.39,-3.07,60.907528162
-0.0455264151096,0.0878857523203,-1.03611302376,61.1537361145,,,,,-4.05,-6.02,-3.9,60.9078919888
-0.0465250983834,0.0831223800778,-1.01856899261,61.1561300755,,,,,-2.43,-7.61,-4.04,60.9087979794
-0.0521696954966,0.0658776760101,-1.02202558517,61.1585321426,,,,,-4.56,-4.94,-2.69,60.9091911316
-0.0544128119946,0.0638225823641,-1.01175534725,61.1609311104,,,,,-6.54,-3.39,-2.23,60.9095571041
-0.0615801438689,0.0726670473814,-1.01776909828,61.2005870342,,,,,-7.05,-3.99,-2.21,60.909922123
-0.0626495927572,0.0822618827224,-1.01638948917,61.2030241489,,,,,-5.23,-5.76,-2.47,60.9102871418
-0.0627484470606,0.0671631619334,-1.03268563747,61.2054259777,,,,,-1.13,-7.87,-2.8,60.9111981392
-0.0574183911085,0.0539995580912,-1.028881073,61.2078239918,,,,,-1.54,-5.55,-2.67,60.9115931988
-0.0451682060957,0.0694128349423,-1.02557742596,61.2452590466,,,,,-5.44,-2.83,-2.57,60.9119591713
-0.0351900681853,0.0792067572474,-1.02939784527,61.2476670742,,,,,-6.1,-3.0,-2.68,60.9123241901
-0.0457282215357,0.0812824591994,-1.03455376625,61.2501070499,,,,,-3.24,-5.27,-3.03,60.9126901627
-0.0551138594747,0.0685607716441,-1.05026853085,61.2525081635,,,,,-0.67,-5.9,-3.3,60.9136760235
-0.0434201210737,0.0788277834654,-1.03652882576,61.2549540997,,,,,0.35,-2.74,-3.56,60.9140691757
-0.0466117635369,0.0968765243888,-1.03201520443,61.2913780212,,,,,-1.02,-1.63,-3.43,60.9144351482
-0.0535479262471,0.0908051803708,-1.02472877502,61.2938201427,,,,,-2.26,-2.42,-2.9,60.9148001671
-0.0451173037291,0.0777100399137,-1.00776612759,61.296216011,,,,,-1.51,-3.72,-2.71,60.9151651859
-0.0472254008055,0.084162004292,-0.984001398087,61.2986149788,,,,,0.11,-4.68,-2.83,60.9160761833
-0.0552579462528,0.0890991538763,-0.995871067047,61.3010179996,,,,,-0.76,-2.5,-2.87,60.9164731503
-0.0484409034252,0.0610558986664,-1.00724959373,61.3411450386,,,,,-0.75,-1.39,-2.39,60.9168400764
-0.0329162031412,0.0640985220671,-0.994594812393,61.3435750008,,,,,0.18,-2.35,-2.15,60.9172050953
-0.0283100940287,0.0845459103584,-0.985292077065,61.3459661007,,,,,0.94,-4.88,-2.24,60.9175710678
-0.0397870019078,0.0796155706048,-0.978834867477,61.3483660221,,,,,-0.31,-5.04,-2.61,60.9184911251
-0.046734072268,0.0728806778789,-0.984504342079,61.3507621288,,,,,-3.41,-1.15,-2.99,60.9188849926
-0.0436787083745,0.0632406175137,-0.975596547127,61.3905479908,,,,,-1.11,-0.75,-2.72,60.9192490578
-0.0399674475193,0.0596845299006,-0.994642019272,61.3929820061,,,,,5.45,-2.89,-2.43,60.9196140766
-0.0462099760771,0.0635560899973,-0.998246669769,61.3953812122,,,,,6.39,-4.09,-2.59,60.9199781418
-0.0441213399172,0.0760316997766,-1.01235771179,61.3978071213,,,,,4.84,-4.36,-3.04,60.9208910465
-0.0305561516434,0.0939757376909,-1.00646460056,61.4350471497,,,,,-3.36,0.24,-3.73,60.9212830067
-0.0354628264904,0.0778573676944,-0.986404418945,61.4374551773,,,,,2.03,0.72,-2.95,60.9216480255
-0.047220915556,0.0529899671674,-0.982287883759,61.4398510456,,,,,6.08,-0.6,-2.47,60.922013998
-0.0569695681334,0.0645377859473,-0.987399458885,61.4422440529,,,,,8.28,-2.09,-2.21,60.9223771095
-0.0531091243029,0.0915162265301,-0.977314352989,61.4446761608,,,,,3.97,-2.7,-2.57,60.923320055
-0.0457660108805,0.0811586081982,-0.961156606674,61.481276989,,,,,-4.31,0.94,-2.87,60.9237141609
-0.0387344285846,0.0600094869733,-0.969806849957,61.4837150574,,,,,-1.94,1.03,-2.49,60.9241051674
-0.0342385172844,0.0739420875907,-0.970375955105,61.4861111641,,,,,1.78,0.26,-1.94,60.9244720936
-0.0324744731188,0.0759844332933,-0.959701299667,61.488505125,,,,,5.87,-1.68,-1.22,60.9248390198
-0.0405267998576,0.0602370202541,-0.971336364746,61.4909000397,,,,,4.52,-1.76,-1.32,60.9257531166
-0.0398411378264,0.069784142077,-0.963113546371,61.531001091,,,,,-1.86,1.4,-2.42,60.9261491299
-0.02965230681,0.0685017779469,-0.955315232277,61.5334351063,,,,,1.12,2.32,-2.43,60.9265141487
-0.0451554656029,0.0524875894189,-0.938632011414,61.5358450413,,,,,3.06,2.04,-2.24,60.9268860817
-0.0388611555099,0.0525667741895,-0.920554757118,61.538244009,,,,,3.94,1.75,-2.18,60.9272561073
-0.0317246392369,0.0686395466328,-0.883923530579,61.5406420231,,,,,2.85,2.33,-2.87,60.9281702042
-0.0360900163651,0.0712285265326,-0.870482087135,61.5803041458,,,,,2.81,5.19,-3.96,60.9285650253
-0.0359994098544,0.053805090487,-0.859469056129,61.5827031136,,,,,3.83,5.41,-3.91,60.9289300442
-0.0340502038598,0.0508994609118,-0.842751145363,61.5851659775,,,,,4.13,5.22,-3.78,60.9292941093
-0.0269833691418,0.0723809525371,-0.831224501133,61.5875639915,,,,,2.51,4.76,-4.21,60.9296591282
-0.0297491494566,0.0721462294459,-0.831541895866,61.6236360073,,,,,2.1,5.11,-4.79,60.9305691719
-0.0361856594682,0.0557243525982,-0.825596213341,61.6260302067,,,,,6.99,7.26,-4.7,60.9309630394
-0.0274799838662,0.0620527490973,-0.808209240437,61.628426075,,,,,8.41,7.1,-3.64,60.9313290119
-0.0215016417205,0.0912535265088,-0.779521346092,61.6308231354,,,,,5.13,5.36,-1.51,60.9316921234
-0.0272589251399,0.0960572659969,-0.768310189247,61.633259058,,,,,1.3,4.66,-1.1,60.9320571423
-0.025090072304,0.0649508759379,-0.782711744308,61.6712400913,,,,,-2.85,5.17,-1.49,60.9330010414
-0.00463436916471,0.0542434602976,-0.804484665394,61.6736810207,,,,,1.18,6.28,-1.13,60.9333970547
-0.00434388965368,0.0465170294046,-0.80038356781,61.6760771275,,,,,4.35,4.69,0.44,60.933765173
-0.0312107298523,0.0327492281795,-0.793816745281,61.6784801483,,,,,2.09,3.23,1.05,60.9341270924
-0.0313262715936,0.0357237756252,-0.790532410145,61.6808781624,,,,,-6.83,1.76,1.09,60.9344911575
-0.0149152465165,0.0447598099709,-0.784066855907,61.7207391262,,,,,-9.47,2.24,0.8,60.9354259968
-0.0159563459456,0.0443400070071,-0.773083150387,61.7231709957,,,,,-1.19,4.04,1.19,60.9358201027
-0.0263167433441,0.0525403916836,-0.749963521957,61.7255661488,,,,,2.18,3.27,1.54,60.9361841679
-0.0372085422277,0.0558595061302,-0.75639718771,61.7279641628,,,,,0.54,1.03,1.65,60.9365470409
-0.032894231379,0.0584540441632,-0.767489373684,61.7303590775,,,,,-3.21,0.71,1.39,60.9369111061
-0.0362268984318,0.0728498026729,-0.763130426407,61.7701921463,,,,,-7.11,2.72,0.99,60.9378201962
-0.046505689621,0.0535982549191,-0.782162904739,61.7725920677,,,,,-1.16,5.15,0.97,60.93821311
-0.0324521586299,0.0439692214131,-0.779482960701,61.7750279903,,,,,3.95,4.93,0.42,60.9385771751
-0.0148381441832,0.0661529302597,-0.767267942429,61.7774441242,,,,,2.89,4.29,-0.15,60.9389531612
-0.0229441486299,0.0724751651287,-0.760362446308,61.8134691715,,,,,-2.7,4.31,-1.42,60.9393210411
-0.0277964435518,0.0413298159838,-0.756571888924,61.8158681393,,,,,-3.81,5.3,-1.99,60.9402320385
-0.0241573788226,0.0232275966555,-0.774987876415,61.8182680607,,,,,1.07,8.49,-3.41,60.9406251907
-0.0180443003774,0.0551755130291,-0.759521603584,61.8206641674,,,,,1.49,8.45,-3.75,60.9409890175
-0.00897517800331,0.094658754766,-0.740933597088,61.8231019974,,,,,-2.15,7.25,-3.69,60.9413530827
-0.0294024273753,0.100735709071,-0.737781345844,61.8628261089,,,,,-3.55,6.76,-3.38,60.9417181015
-0.0376520603895,0.0747404694557,-0.726475596428,61.8652291298,,,,,-1.45,7.2,-2.89,60.9426350594
-0.0126355104148,0.0537817403674,-0.739481031895,61.8676261902,,,,,1.38,8.55,-3.09,60.943062067
-0.0034164134413,0.062093295157,-0.737893462181,61.8700251579,,,,,-2.54,8.87,-3.56,60.9434301853
-0.012170445174,0.0592148676515,-0.743444144726,61.8724219799,,,,,-5.19,8.66,-3.61,60.9437952042
-0.0231180414557,0.0248002130538,-0.763203799725,61.9127261639,,,,,-3.98,8.42,-3.55,60.9441599846
-0.0226018689573,0.0338543877006,-0.774856507778,61.9151670933,,,,,-0.28,8.76,-3.53,60.9450700283
-0.00805888697505,0.0565475672483,-0.763020098209,61.9175670147,,,,,3.22,10.14,-3.95,60.9454641342
-0.0116269625723,0.0546569302678,-0.748251020908,61.9199640751,,,,,-0.59,10.35,-4.06,60.9458291531
-0.0223202295601,0.0464469864964,-0.725518941879,61.9223570824,,,,,-6.09,10.49,-3.96,60.9461929798
-0.0187631063163,0.0515775308013,-0.730304062366,61.9616742134,,,,,-4.46,10.6,-3.65,60.946557045
-0.00904333591461,0.0564436689019,-0.749755620956,61.9641242027,,,,,4.24,10.71,-2.51,60.94749403
-0.0196656249464,0.0552198290825,-0.760080039501,61.9665269852,,,,,5.39,10.16,-1.16,60.9478881359
-0.0282448343933,0.0655911937356,-0.740980446339,61.9689221382,,,,,-4.13,9.46,-0.26,60.9482522011
-0.0152620114386,0.0848468095064,-0.71978700161,62.0052042007,,,,,-8.01,9.47,0.01,60.9486160278
-0.010982748121,0.0794783234596,-0.694532632828,62.0076069832,,,,,-8.67,9.68,0.21,60.948980093
-0.0240183286369,0.0505992174149,-0.702560484409,62.0099980831,,,,,1.27,9.96,0.82,60.9498929977
-0.0111022628844,0.027202071622,-0.747206687927,62.0123901367,,,,,0.2,8.93,0.53,60.9502851963
0.00153933104593,0.0244655888528,-0.746353387833,62.0148620605,,,,,-3.57,8.58,0.24,60.9506499767
-0.00999086722732,0.037599503994,-0.735459089279,62.0528361797,,,,,-7.04,8.62,-0.09,60.9510140419
-0.00384006276727,0.0504201799631,-0.711575448513,62.0552442074,,,,,-6.8,9.47,-0.76,60.9513781071
0.000715673086233,0.0695436149836,-0.742249369621,62.0576431751,,,,,-0.03,9.97,-1.26,60.9522871971
-0.0142104066908,0.0825150609016,-0.766256034374,62.0600550175,,,,,2.34,8.99,-1.73,60.9526910782
-0.0231848843396,0.072564214468,-0.758581578732,62.0624639988,,,,,-0.77,7.82,-1.61,60.9531261921
-0.0112285353243,0.0583394020796,-0.762828469276,62.1025700569,,,,,-1.47,7.53,-1.38,60.9534950256
-0.00747432000935,0.0594136565924,-0.762245953083,62.1050121784,,,,,-0.72,7.38,-1.21,60.9538609982
-0.00969878211617,0.0575623288751,-0.785744547844,62.107407093,,,,,2.27,7.21,-1.5,60.9547691345
-0.00258588418365,0.0533557459712,-0.790188848972,62.1098051071,,,,,0.23,6.37,-1.8,60.9551620483
-0.00725154206157,0.0483542755246,-0.78661775589,62.1122000217,,,,,-0.36,5.89,-1.31,60.9555280209
-0.0173573754728,0.0385801121593,-0.781769871712,62.1505181789,,,,,0.51,5.31,-0.68,60.9558911324
0.000441398588009,0.0312643051147,-0.759293794632,62.1529500484,,,,,5.33,4.15,-0.39,60.9562551975
0.00292972847819,0.0382058992982,-0.770154416561,62.1553461552,,,,,6.63,3.9,-0.92,60.9571661949
-0.0126691311598,0.0449872538447,-0.77253639698,62.1577441692,,,,,2.01,4.77,-2.0,60.9575631618
-0.0135771073401,0.0655432716012,-0.771339774132,62.1937441826,,,,,1.44,5.09,-1.48,60.957930088
-0.0129698179662,0.0714546442032,-0.772072374821,62.1961481571,,,,,7.13,4.75,-0.44,60.9582951069
-0.017396364361,0.0503240823746,-0.755666851997,62.1985461712,,,,,11.24,4.31,-0.72,60.958684206
-0.0242777429521,0.0316014289856,-0.774236857891,62.2009441853,,,,,13.5,4.11,-2.51,60.9595980644
-0.0116955265403,0.0564790666103,-0.786735057831,62.2033832073,,,,,7.84,5.37,-3.4,60.9599909782
0.00939207989722,0.0529592186213,-0.786794245243,62.2429862022,,,,,6.46,6.35,-2.2,60.9603540897
-0.0139858275652,0.0501204356551,-0.782701075077,62.245388031,,,,,9.43,6.19,-1.66,60.9607210159
-0.0346658453345,0.0762200579047,-0.766704916954,62.2477881908,,,,,15.89,5.36,-2.01,60.9610850811
-0.0163027979434,0.0904736369848,-0.771668970585,62.2501821518,,,,,16.07,5.21,-2.62,60.9619941711
-0.000654559466057,0.0744813159108,-0.791829288006,62.2525742054,,,,,7.79,6.25,-2.85,60.9623880386
-0.0067754983902,0.0404181554914,-0.813083827496,62.2923212051,,,,,6.98,6.25,-2.38,60.9627501965
-0.00661711394787,0.0399580299854,-0.816122829914,62.2947821617,,,,,10.48,5.24,-1.97,60.9631550312
4.78421570733e-05,0.0450484454632,-0.821957111359,62.29717803,,,,,12.51,4.75,-2.22,60.96352005
-0.00230847112834,0.0445301160216,-0.817051589489,62.299571991,,,,,11.71,4.98,-2.68,60.9644331932
-0.00366551987827,0.0367131084204,-0.790483653545,62.3019731045,,,,,8.15,5.85,-2.43,60.9648270607
-0.00858988799155,0.0308137107641,-0.776036739349,62.3403861523,,,,,7.36,5.14,-1.92,60.9651911259
-0.00734215788543,0.0416444092989,-0.786675095558,62.3427832127,,,,,8.16,4.31,-2.0,60.9655561447
0.0034894477576,0.0478492900729,-0.793255865574,62.3452210426,,,,,8.68,3.6,-2.44,60.9659202099
0.000596685451455,0.0417214408517,-0.810881078243,62.3476140499,,,,,7.93,4.16,-2.51,60.9668300152
-0.000442184391432,0.0160106848925,-0.857553899288,62.3855321407,,,,,7.15,5.94,-1.94,60.9672231674
-0.00357503071427,0.00402662344277,-0.883393287659,62.3879261017,,,,,7.43,5.38,-1.72,60.9675860405
-0.00435468740761,0.0465516895056,-0.872500419617,62.3903441429,,,,,6.9,3.4,-1.87,60.9679691792
-0.00575688108802,0.0776035040617,-0.831159412861,62.3927490711,,,,,5.66,3.14,-2.1,60.9683420658
-0.021778780967,0.0588320866227,-0.845353245735,62.3951871395,,,,,3.85,5.05,-2.37,60.9692640305
-0.012784704566,0.0568795353174,-0.84683907032,62.4345700741,,,,,5.53,6.96,-1.94,60.9696772099
-0.0109190009534,0.0642713978887,-0.854080557823,62.4369671345,,,,,6.95,5.38,-1.27,60.9700460434
-0.0143895000219,0.0614963173866,-0.847837150097,62.4393560886,,,,,6.04,3.99,-1.24,60.9704101086
-0.016263063997,0.0615044459701,-0.865003824234,62.441753149,,,,,2.24,3.8,-1.68,60.9707741737
-0.0222717560828,0.0589134022593,-0.888922214508,62.4441781044,,,,,0.92,5.39,-1.86,60.9716851711
-0.0117553621531,0.0596078783274,-0.900139331818,62.4839692116,,,,,3.65,8.93,-1.77,60.9720771313
0.00839417986572,0.0636627152562,-0.900068759918,62.4863669872,,,,,4.31,7.83,-1.82,60.9724421501
0.0121173271909,0.0553637593985,-0.897305071354,62.4887661934,,,,,2.68,4.76,-2.69,60.9728341103
-0.0122412890196,0.0484101772308,-0.892841219902,62.4911601543,,,,,0.95,4.69,-3.13,60.9732031822
-0.0196119397879,0.0554664880037,-0.887952208519,62.5283210278,,,,,-0.64,8.01,-3.33,60.9741170406
-0.0103700496256,0.048558242619,-0.882444262505,62.5307281017,,,,,1.55,10.42,-2.99,60.9745111465
-0.018893647939,0.0349254757166,-0.900164425373,62.533162117,,,,,2.6,7.72,-3.46,60.9748740196
-0.0190587416291,0.0344423577189,-0.91312867403,62.5355529785,,,,,2.14,5.92,-3.97,60.9752380848
-0.00494552217424,0.0511840134859,-0.916135370731,62.5379471779,,,,,1.29,5.53,-4.26,60.97560215
-0.0045896153897,0.053851082921,-0.911106646061,62.5745711327,,,,,1.77,6.94,-3.78,60.976514101
-0.0089765843004,0.0439829528332,-0.899714529514,62.5769681931,,,,,3.91,8.37,-2.59,60.9769070148
-0.0182908512652,0.0448801741004,-0.909956872463,62.579365015,,,,,3.05,6.9,-2.78,60.97727108
-0.0128601901233,0.061099357903,-0.890038907528,62.5818161964,,,,,1.24,4.4,-3.16,60.9776341915
0.00182680238504,0.0530062243342,-0.887724876404,62.5842511654,,,,,1.83,4.52,-2.75,60.9779970646
-0.00210082903504,0.0475518107414,-0.893551707268,62.6258502007,,,,,3.65,5.37,-1.92,60.9789071083
-0.00330332480371,0.0697844028473,-0.905949652195,62.6282470226,,,,,7.73,5.3,-0.45,60.9793012142
-0.00349893420935,0.0668707564473,-0.911856532097,62.6306481361,,,,,4.54,2.29,-1.05,60.9796640873
0.00099921238143,0.0606517866254,-0.933223009109,62.6330831051,,,,,3.61,1.64,-1.1,60.9800291061
0.00226062163711,0.0763348639011,-0.935078322887,62.6354861259,,,,,4.53,2.08,-0.69,60.9803919792
0.000961942714639,0.0863046348095,-0.92815309763,62.6739220619,,,,,10.59,4.17,0.7,60.9813270569
-0.0186169184744,0.0653004348278,-0.932058393955,62.6763131618,,,,,11.77,1.85,0.17,60.9817221165
-0.0282542444766,0.0579472631216,-0.929917514324,62.6787090302,,,,,9.23,0.29,-0.5,60.9820871353
-0.0273305475712,0.0498650968075,-0.959352314472,62.6811020374,,,,,7.49,-0.3,-0.95,60.9824512005
-0.0289296843112,0.0365978330374,-0.989385724068,62.71829319,,,,,9.75,2.08,-0.79,60.9828410149
-0.0295393485576,0.049666069448,-0.99623966217,62.7206921577,,,,,12.6,3.89,-0.5,60.983754158
-0.0336802154779,0.0625297576189,-0.988718152046,62.7231171131,,,,,13.36,2.94,-1.21,60.9841480255
-0.0213075689971,0.0627884417772,-0.982461690903,62.7255141735,,,,,10.87,1.14,-1.81,60.984511137
-0.0105861276388,0.0632977336645,-0.980220317841,62.7279081345,,,,,9.32,0.45,-2.73,60.9848752022
-0.0135758891702,0.0637618228793,-0.973233997822,62.7646710873,,,,,10.84,2.15,-2.82,60.9852511883
-0.0177877806127,0.0667080283165,-0.969345629215,62.7670660019,,,,,14.81,5.96,-2.8,60.9861741066
-0.0135399997234,0.0794199928641,-0.973549485207,62.7694590092,,,,,12.92,3.52,-3.34,60.9865660667
-0.00384263694286,0.0725387334824,-0.965880930424,62.7718482018,,,,,12.16,2.32,-3.77,60.9869310856
-0.000969445216469,0.0577379018068,-0.940756917,62.774285078,,,,,12.39,2.38,-4.15,60.9872951508
-0.00203591398895,0.0623913928866,-0.94193983078,62.8143692017,,,,,14.4,5.9,-4.43,60.9876589775
-0.00116087670904,0.0742626339197,-0.936407625675,62.8167622089,,,,,14.95,7.58,-4.31,60.9885680676
-0.00181223812979,0.0632754713297,-0.957880556583,62.8191430569,,,,,12.74,5.6,-3.76,60.9889609814
-0.00138993363362,0.0503135249019,-0.984575867653,62.8215382099,,,,,12.51,4.28,-3.85,60.9893250465
-0.00196507573128,0.0447466894984,-0.987342953682,62.8239560127,,,,,13.98,4.64,-4.15,60.9896910191
-0.011944744736,0.0362744480371,-0.972639977932,62.8654830456,,,,,14.46,5.97,-4.12,60.9900560379
-0.0150879025459,0.0362773314118,-0.973404288292,62.8678750992,,,,,12.56,7.11,-3.46,60.9909670353
-0.0151158161461,0.0418223962188,-0.988256335258,62.8702661991,,,,,9.09,4.9,-2.84,60.9913601875
-0.0206204764545,0.05346763134,-1.0011960268,62.8726561069,,,,,9.14,3.65,-2.86,60.99172616
-0.00964732840657,0.0698637217283,-1.02174317837,62.9091570377,,,,,10.5,4.22,-2.97,60.9920890331
-0.0109484381974,0.0569336265326,-0.999568343163,62.9115600586,,,,,11.51,5.78,-2.78,60.992454052
-0.0100165046751,0.071666687727,-0.986365795135,62.913998127,,,,,10.28,5.59,-2.54,60.9934260845
-0.00791509449482,0.0693212151527,-0.986689686775,62.916446209,,,,,4.22,3.08,-1.95,60.9938189983
-0.00763360783458,0.0452344119549,-1.01200807095,62.9188461304,,,,,4.24,3.11,-2.0,60.9941852093
-0.0154798477888,0.0548250898719,-1.00973236561,62.9562141895,,,,,7.81,4.37,-2.29,60.9945480824
-0.0215989761055,0.0642500072718,-1.01506578922,62.9586150646,,,,,9.23,4.7,-2.45,60.9949131012
0.00441726110876,0.0488057136536,-1.01545774937,62.9610090256,,,,,7.93,3.69,-2.71,60.9958231449
0.0128721781075,0.0522167831659,-0.99792432785,62.9634530544,,,,,3.56,2.21,-2.67,60.9962160587
-0.0108432397246,0.0490728393197,-1.00889825821,62.9658560753,,,,,3.72,2.43,-2.71,60.9965820312
-0.0192790739238,0.0411272644997,-1.00063252449,63.0060040951,,,,,6.1,2.87,-2.93,60.9969470501
-0.0185574404895,0.0482271164656,-0.994615077972,63.0084002018,,,,,10.3,3.27,-3.33,60.9973111153
-0.0190842747688,0.0395933017135,-1.01089572906,63.0107979774,,,,,10.73,3.03,-3.43,60.9982380867
-0.0192451551557,0.0292932223529,-1.02156019211,63.0132341385,,,,,7.38,2.13,-2.79,60.9986300468
-0.0170228071511,0.0506432577968,-1.01448059082,63.0156340599,,,,,7.53,2.21,-2.92,60.9989950657
-0.0176956281066,0.0471523180604,-1.02153122425,63.0551860332,,,,,10.89,2.87,-3.82,60.9993591309
-0.0112284757197,0.0355417430401,-1.04647552967,63.0575790405,,,,,12.92,3.24,-4.22,60.9997220039
0.000231834244914,0.0388587266207,-1.05127882957,63.0599761009,,,,,14.74,3.41,-3.85,61.0006341934
-0.000412378343754,0.0470904484391,-1.03907394409,63.0623750687,,,,,12.94,2.38,-2.34,61.0010280609
-0.00408394262195,0.0602037236094,-1.0227971077,63.0985281467,,,,,10.73,1.14,-2.09,61.0013911724
-0.00365215912461,0.0564491003752,-1.02022111416,63.1009271145,,,,,10.57,0.82,-2.46,61.0017561913
-0.00814497843385,0.0499204695225,-1.03271758556,63.1033711433,,,,,11.07,0.84,-2.8,61.002120018
-0.0137173645198,0.0620311126113,-1.02475202084,63.1057720184,,,,,13.28,1.18,-2.3,61.0030651093
-0.0102466009557,0.0608728826046,-1.04213380814,63.1081690788,,,,,13.32,-0.74,-0.2,61.0034611225
-0.00449710339308,0.0605073198676,-1.02493810654,63.1465740204,,,,,12.22,-1.74,-0.25,61.0038251877
5.30501129106e-05,0.0616962313652,-1.00175690651,63.148963213,,,,,10.99,-2.56,-1.06,61.0041890144
-0.00929476320744,0.050526112318,-1.01511049271,63.1513609886,,,,,11.54,-2.13,-1.31,61.0045900345
-0.0121371336281,0.0606344789267,-1.02467620373,63.1538062096,,,,,14.64,-0.89,-0.99,61.0055060387
-0.0093134753406,0.076344139874,-1.03094434738,63.1562011242,,,,,16.38,-1.18,-0.63,61.0059030056
-0.00591489300132,0.0652651041746,-1.02892887592,63.1959300041,,,,,16.01,-3.0,-1.06,61.0062680244
-0.0086180716753,0.0450170636177,-1.0382297039,63.1983270645,,,,,15.68,-3.5,-1.22,61.006633997
-0.0175434462726,0.0445535853505,-1.01065170765,63.2007231712,,,,,15.5,-3.32,-1.1,61.0069961548
-0.00990913063288,0.0426928922534,-1.00482261181,63.2031550407,,,,,15.69,-1.62,-0.16,61.0079081059
-0.000120080891065,0.0407096967101,-1.01957678795,63.2055561543,,,,,17.09,-2.17,0.47,61.008300066
0.0115257790312,0.0522009581327,-1.00591278076,63.2452971935,,,,,18.19,-3.44,0.23,61.0086660385
-0.00393936038017,0.0571858286858,-0.997086048126,63.2476961613,,,,,19.34,-4.31,-0.06,61.0090310574
-0.0238571278751,0.0588485822082,-1.0111540556,63.2500870228,,,,,19.65,-3.61,-0.1,61.0093929768
-0.0241647064686,0.04757155478,-1.01358866692,63.2524781227,,,,,17.96,-2.06,-0.05,61.0103030205
-0.0191278196871,0.0276378002018,-1.04036295414,63.2882881165,,,,,18.15,-3.84,-0.34,61.0106961727
-0.00647707656026,0.0394844934344,-1.06829237938,63.2906901836,,,,,22.32,-6.53,-1.1,61.0110599995
-0.0135388337076,0.0520238205791,-1.06193482876,63.293181181,,,,,24.0,-6.43,-1.18,61.0114240646
-0.0172302052379,0.0427398383617,-1.04508805275,63.2955801487,,,,,24.37,-5.3,-1.04,61.0117890835
-0.0144340656698,0.0414181798697,-1.03897595406,63.2979671955,,,,,19.86,-3.39,-0.31,61.0126991272
-0.00749030336738,0.047104537487,-1.03322911263,63.3361890316,,,,,19.34,-6.32,-0.51,61.0131239891
-0.00629120878875,0.051113076508,-1.02630579472,63.3385851383,,,,,20.79,-7.08,-0.68,61.0134911537
-0.0120424516499,0.0604647025466,-1.03194618225,63.3409810066,,,,,22.44,-6.53,-0.61,61.0138580799
-0.00489851646125,0.0534815564752,-1.02869641781,63.343419075,,,,,23.37,-2.92,0.36,61.0142230988
-0.00855568423867,0.0404231399298,-1.02445137501,63.3458120823,,,,,22.4,-1.94,1.0,61.0151340961
-0.00844933837652,0.0320510417223,-1.00738573074,63.3860971928,,,,,17.87,-5.61,1.19,61.0155501366
-0.00117911386769,0.0421096011996,-1.01543450356,63.3884890079,,,,,17.56,-6.42,0.59,61.0159170628
-0.00954325869679,0.0510774627328,-1.02968454361,63.3908810616,,,,,19.28,-3.87,-0.3,61.0162811279
-0.0110525228083,0.0507745817304,-1.04427075386,63.3933191299,,,,,20.72,-1.81,-0.37,61.0166461468
-0.0109539479017,0.0607309043407,-1.04294085503,63.3957161903,,,,,22.97,-1.33,-0.18,61.0175540447
-0.0133519694209,0.0545733869076,-1.04243707657,63.433863163,,,,,22.07,-4.91,-0.52,61.017947197
-0.018940795213,0.0441944301128,-1.05951702595,63.4362630844,,,,,20.27,-5.68,-1.42,61.0183119774
-0.0120109505951,0.0599890127778,-1.06451237202,63.4386610985,,,,,20.64,-3.98,-1.81,61.0186760426
-0.00459739379585,0.0491454824805,-1.07355201244,63.4410600662,,,,,24.78,-0.67,-2.13,61.0190401077
-0.00896884128451,0.041346244514,-1.05743682384,63.4769961834,,,,,27.7,-0.86,-2.11,61.0199491978
-0.012837741524,0.0587399676442,-1.02861773968,63.4794001579,,,,,30.78,-6.4,-2.06,61.0203411579
-0.0148812048137,0.0587824583054,-1.03484344482,63.4817960262,,,,,29.85,-6.93,-2.19,61.0207061768
-0.0103715471923,0.0543818846345,-1.05317401886,63.4844901562,,,,,28.91,-4.64,-2.65,61.0210711956
-0.00386202521622,0.0467266067863,-1.05890536308,63.4868910313,,,,,29.99,-3.43,-2.75,61.0214362144
-0.00799433887005,0.0389078333974,-1.055336833,63.5264520645,,,,,35.27,-4.53,-2.62,61.0223500729
-0.0105438418686,0.0382710248232,-1.03822278976,63.5288491249,,,,,39.19,-8.84,-2.0,61.0227441788
-0.00900399871171,0.0373938307166,-1.03591346741,63.5312430859,,,,,39.54,-10.6,-1.9,61.023140192
0.000661805388518,0.0382175520062,-1.04134881496,63.533686161,,,,,38.96,-10.07,-1.93,61.0235052109
0.0143524017185,0.0455629453063,-1.02512729168,63.536080122,,,,,39.88,-9.17,-1.68,61.023868084
0.00484574213624,0.0479658320546,-1.00854516029,63.5756630898,,,,,41.7,-10.01,-1.13,61.024780035
-0.00154081347864,0.0520244538784,-1.01136875153,63.5780601501,,,,,48.74,-15.45,0.65,61.0251741409
-0.00815259106457,0.0462994650006,-1.02884030342,63.580466032,,,,,50.54,-16.45,0.72,61.0255382061
-0.0109481774271,0.0527798831463,-1.02108752728,63.5829110146,,,,,52.94,-16.72,0.38,61.0259029865
-0.00491296872497,0.0613183379173,-1.03081953526,63.5853350163,,,,,53.86,-16.88,0.38,61.0262761116
-0.00769540667534,0.0523044243455,-1.03550505638,63.6239311695,,,,,55.64,-19.07,1.09,61.0272262096
0.00139535975177,0.0464121699333,-1.04301333427,63.6263270378,,,,,59.03,-22.49,1.24,61.0276210308
-0.00220838934183,0.0525668263435,-1.04573953152,63.6287221909,,,,,65.27,-25.03,0.61,61.0279870033
-0.0134539939463,0.0512860491872,-1.04418408871,63.6311171055,,,,,68.55,-25.84,0.49,61.0283532143
-0.00431971810758,0.0477385371923,-1.0573451519,63.6674520969,,,,,71.49,-28.01,1.64,61.028717041
-0.00787990912795,0.0473111122847,-1.06062746048,63.6698560715,,,,,70.73,-29.61,2.61,61.0296301842
-0.0125116184354,0.0348989889026,-1.05724811554,63.6722521782,,,,,69.18,-34.72,4.51,61.0300240517
-0.0118681155145,0.0352851226926,-1.04471051693,63.6746890545,,,,,72.29,-35.67,4.59,61.0303881168
-0.0137179158628,0.0318174064159,-1.02572977543,63.6770842075,,,,,81.03,-36.43,4.81,61.0307509899
-0.0167305059731,0.0301107782871,-1.02234339714,63.7161870003,,,,,83.68,-36.83,4.99,61.0311172009
-0.00950311869383,0.0399995371699,-1.04112350941,63.7186231613,,,,,81.91,-38.74,5.25,61.0320401192
-0.00645211525261,0.0466052293777,-1.04327249527,63.7210180759,,,,,78.79,-40.6,4.51,61.0324320793
-0.0201683454216,0.0542651638389,-1.02241432667,63.723457098,,,,,85.26,-40.19,3.03,61.0328240395
-0.0154001414776,0.0417089238763,-1.02285408974,63.7258591652,,,,,91.44,-39.42,2.18,61.0331950188
-0.00675239413977,0.0399557873607,-1.02751231194,63.7658891678,,,,,97.24,-38.94,1.36,61.0335609913
-0.0022286940366,0.0569847673178,-1.02168118954,63.7682840824,,,,,102.08,-39.97,0.12,61.0344700813
0.00800160877407,0.0634040534496,-1.01706314087,63.7706780434,,,,,100.77,-41.79,-1.07,61.0348551273
0.00913168024272,0.0466825440526,-1.02311146259,63.7731080055,,,,,103.13,-41.1,-1.32,61.0352201462
-0.0142582692206,0.0283439550549,-1.01670742035,63.810185194,,,,,107.62,-40.29,-1.52,61.0355830193
-0.0203259699047,0.0284615475684,-1.04713857174,63.8125841618,,,,,118.19,-40.15,-1.6,61.0359489918
-0.013296443969,0.0538605377078,-1.06400167942,63.815018177,,,,,121.8,-40.9,-1.66,61.0368590355
-0.0159758850932,0.0641578137875,-1.06110370159,63.817412138,,,,,123.07,-41.31,-2.41,61.0372521877
-0.012914519757,0.0330067798495,-1.05496358871,63.8198060989,,,,,124.82,-39.14,-3.88,61.0376200676
-0.0153258629143,0.026505542919,-1.03672337532,63.857378006,,,,,127.67,-38.84,-4.46,61.0379850864
-0.00825875066221,0.038782030344,-1.03554797173,63.8597819805,,,,,131.33,-39.18,-4.73,61.0383491516
-0.0115651153028,0.0389916673303,-1.05415856838,63.862498045,,,,,137.46,-40.46,-4.19,61.039285183
-0.0207537449896,0.0591449663043,-1.04613268375,63.8649301529,,,,,139.05,-37.62,-3.35,61.0396780968
-0.0120651461184,0.0617399662733,-1.02335071564,63.8673200607,,,,,139.5,-36.96,-3.61,61.0400431156
-0.00698490813375,0.0424331948161,-1.03214490414,63.9064190388,,,,,140.53,-37.22,-3.9,61.0404081345
-0.0143968686461,0.0298849437386,-1.04141807556,63.9088120461,,,,,143.97,-39.27,-3.7,61.0407721996
-0.013083986938,0.0239515285939,-1.04268395901,63.9112091064,,,,,145.3,-39.53,-3.04,61.0416800976
0.000931436312385,0.0316472351551,-1.04626441002,63.9136459827,,,,,148.37,-34.55,-1.15,61.0420730114
-0.0081705711782,0.0200634431094,-1.03502631187,63.916036129,,,,,150.15,-33.5,-1.03,61.0424361229
-0.0207939706743,0.017231380567,-1.02536606789,63.9554381371,,,,,154.29,-34.67,-1.44,61.0428271294
-0.0137376450002,0.0339706465602,-1.02340042591,63.9578371048,,,,,155.56,-35.51,-1.69,61.0431962013
-0.00617943890393,0.0254911687225,-1.02154612541,63.9602332115,,,,,155.26,-33.39,-2.01,61.0441071987
-0.0136852487922,0.0253934431821,-1.02858901024,63.9626221657,,,,,155.8,-28.0,-2.16,61.0445010662
-0.0158636234701,0.0353018790483,-1.02497065067,64.0001339912,,,,,161.77,-26.4,-1.85,61.0448651314
-0.0152383111417,0.0452878624201,-1.00503528118,64.0025360584,,,,,165.27,-27.51,-1.6,61.0452301502
-0.00626793503761,0.0660108104348,-0.986783027649,64.0049710274,,,,,167.29,-28.74,-1.25,61.0455951691
-0.000529482844286,0.0486454367638,-0.990926146507,64.0073711872,,,,,165.14,-27.41,-1.28,61.0465111732
0.000721996766515,0.0428221300244,-1.01281583309,64.0097651482,,,,,159.15,-20.9,-0.62,61.0469040871
0.000981032964773,0.0511280298233,-1.0288233757,64.0468959808,,,,,161.05,-20.74,0.15,61.0472671986
-0.00812942534685,0.0403661802411,-1.04149520397,64.0492920876,,,,,166.77,-22.83,1.75,61.0476300716
-0.010429892689,0.058280557394,-1.01971018314,64.0516860485,,,,,167.39,-23.04,2.05,61.0479941368
-0.0116329006851,0.0828677117825,-1.004134655,64.0541210175,,,,,161.67,-19.76,1.71,61.0489051342
-0.0188954249024,0.0693435370922,-0.99970471859,64.0565161705,,,,,155.53,-15.59,1.72,61.0492961407
-0.0191322900355,0.0521876737475,-1.00987875462,64.0959742069,,,,,158.38,-15.03,2.53,61.0496621132
-0.0176474861801,0.0446650087833,-1.01299917698,64.0983681679,,,,,161.52,-15.19,2.66,61.0500462055
-0.0150767974555,0.0484802052379,-0.987044811249,64.1007649899,,,,,163.64,-13.07,1.65,61.0504131317
-0.0110117904842,0.0650213435292,-0.979125022888,64.1032230854,,,,,161.39,-10.79,0.91,61.0513260365
-0.0175435766578,0.0471190214157,-0.994666099548,64.1056270599,,,,,154.93,-6.36,0.27,61.051721096
-0.0158914551139,0.0318402647972,-0.992619037628,64.1453330517,,,,,155.87,-6.31,0.45,61.0520861149
-0.00841577164829,0.0449397191405,-0.995613574982,64.1477282047,,,,,159.27,-5.33,0.2,61.0524501801
-0.00457832962275,0.0617398247123,-0.993416190147,64.1501231194,,,,,159.39,-3.62,-0.2,61.0528440475
-0.002397056669,0.0518671572208,-0.977344751358,64.1525211334,,,,,154.95,0.8,-0.62,61.0537610054
-0.00440617278218,0.0465456172824,-0.970647931099,64.1899690628,,,,,150.95,2.24,-0.14,61.0541541576
-0.0115213431418,0.0487184375525,-0.979506731033,64.1923780441,,,,,150.64,1.45,0.28,61.0545170307
-0.019790392369,0.0494133383036,-1.00876581669,64.1948120594,,,,,150.85,1.82,0.15,61.0548801422
-0.0221873186529,0.052407771349,-1.02490520477,64.1972060204,,,,,149.5,5.43,-0.27,61.0552451611
-0.0110422149301,0.0468337833881,-1.01250016689,64.1996030807,,,,,147.92,7.67,-0.22,61.0561552048
-0.00824421271682,0.0388788431883,-0.997331142426,64.2361781597,,,,,145.7,8.43,0.91,61.0565490723
-0.0103694833815,0.0294834394008,-0.994953870773,64.2385771275,,,,,145.25,7.05,1.22,61.0569140911
-0.0100313127041,0.0489527434111,-1.00326681137,64.2409720421,,,,,142.68,6.55,1.24,61.0572772026
-0.00835670530796,0.067295409739,-1.01296460629,64.2434091568,,,,,140.63,8.24,1.09,61.0576400757
0.00130826060195,0.0492340326309,-1.01656782627,64.2458090782,,,,,137.32,13.02,1.28,61.0585501194
0.00258519686759,0.05087248981,-0.993866086006,64.2856960297,,,,,137.55,13.66,2.18,61.0589430332
-0.00201896950603,0.0671268701553,-0.971343815327,64.2880880833,,,,,136.0,10.96,2.79,61.0593070984
0.0119508709759,0.0620366260409,-0.976093947887,64.29048419,,,,,133.15,10.87,2.6,61.0596711636
0.0144475325942,0.056237347424,-0.997309923172,64.2929131985,,,,,129.67,12.29,2.07,61.0600349903
0.00422149524093,0.0646031051874,-0.987908840179,64.2953140736,,,,,124.74,17.48,1.09,61.060945034
0.00291548483074,0.0469374880195,-1.00660336018,64.335116148,,,,,-14372264.11,78684.18,5550466.14,61.0613601208
0.00739409308881,0.0340289995074,-1.00984823704,64.3375070095,,,,,76.87,21.68,0.12,61.0619430542
0.0072851376608,0.0529035776854,-0.98625421524,64.3399000168,,,,,80.82,23.17,1.19,61.0623371601
-0.000596877071075,0.053310751915,-1.00198972225,64.3422970772,,,,,81.18,23.8,1.21,61.0627009869
-0.00477102771401,0.0489805266261,-1.01445138454,64.3785161972,,,,,76.82,23.09,0.48,61.0630991459
-0.00442569516599,0.0429542884231,-1.02093315125,64.3809120655,,,,,73.48,22.09,0.19,61.0634651184
-0.00053596298676,0.0435594543815,-1.00922179222,64.3833441734,,,,,71.56,20.46,0.58,61.0643730164
0.0051533523947,0.0506895408034,-0.996040821075,64.3857390881,,,,,75.45,21.2,1.79,61.0647680759
-0.00433822348714,0.0464586317539,-1.00122332573,64.3881361485,,,,,75.13,21.63,2.18,61.0651330948
-0.00391025468707,0.0538541078568,-0.998654842377,64.4267230034,,,,,72.24,21.09,1.88,61.0654962063
0.00411634519696,0.0557923093438,-1.00675845146,64.4291181564,,,,,66.15,19.66,0.66,61.065860033
0.00299551151693,0.0495690628886,-1.00111615658,64.4315161705,,,,,65.38,19.61,0.16,61.0667700768
0.000759588670917,0.0350195541978,-0.982446908951,64.4339439869,,,,,70.01,21.75,-0.18,61.0671641827
0.00611191615462,0.0470102056861,-0.974937260151,64.4363360405,,,,,69.58,21.92,0.06,61.0675280094
0.00529037415981,0.0588178709149,-0.973283588886,64.4758629799,,,,,64.72,20.68,-0.02,61.0678920746
-0.0114233456552,0.0461667180061,-0.998905777931,64.4782581329,,,,,62.33,20.09,-0.45,61.068253994
-0.0143037065864,0.0467913523316,-1.00481188297,64.4806511402,,,,,61.6,20.33,-1.16,61.0691611767
-0.00358558446169,0.0634622648358,-1.00606393814,64.4830811024,,,,,63.65,20.75,-0.61,61.0695571899
0.0122847994789,0.0742846131325,-0.997762799263,64.4854841232,,,,,61.16,19.92,0.68,61.069920063
0.0173587165773,0.0627751946449,-0.997291207314,64.5250680447,,,,,57.97,19.07,0.93,61.0702850819
0.00537250190973,0.0567201077938,-1.01323187351,64.5274620056,,,,,53.21,17.76,0.45,61.0706470013
0.00204711407423,0.0569664016366,-1.01367866993,64.5298571587,,,,,52.58,17.31,0.21,61.0715711117
0.00857040844858,0.0514630526304,-1.01491582394,64.5322501659,,,,,51.9,16.18,0.87,61.071983099
0.00433079525828,0.0508534535766,-0.989534854889,64.5683810711,,,,,49.81,16.19,0.89,61.0723481178
-0.000853514182381,0.0615318119526,-0.983785510063,64.5707809925,,,,,44.44,17.12,-0.39,61.0727131367
0.0013503638329,0.0632612034678,-0.998722314835,64.5732111931,,,,,43.22,17.41,-1.38,61.0731101036
0.00870770029724,0.0690055564046,-0.993113160133,64.5756092072,,,,,44.92,16.74,-2.37,61.0740242004
0.0016777330311,0.0592096596956,-0.997780799866,64.5779981613,,,,,45.46,15.54,-1.69,61.0744180679
-0.0094608515501,0.0558511465788,-0.996384859085,64.617221117,,,,,41.06,15.5,-1.37,61.0747821331
-0.00476585328579,0.0716274529696,-0.983368754387,64.6196119785,,,,,38.69,15.68,-1.75,61.0751471519
-0.00159113469999,0.071508705616,-0.971493959427,64.6220090389,,,,,37.5,14.59,-2.2,61.0755109787
0.00690917111933,0.0504379197955,-0.961297392845,64.6244380474,,,,,38.77,13.56,-1.87,61.0764219761
0.000131651875563,0.0450929403305,-0.981859326363,64.6268332005,,,,,36.08,12.68,1.01,61.076816082
0.0106025757268,0.048637598753,-1.00584125519,64.6661970615,,,,,32.93,12.59,1.59,61.0771811008
0.0129768010229,0.051690787077,-0.991092681885,64.668596983,,,,,28.91,10.59,1.51,61.0775461197
-0.00426840595901,0.062763415277,-0.981632709503,64.6709961891,,,,,29.35,8.91,1.35,61.0779111385
0.00117476854939,0.0655139610171,-0.980855107307,64.6734380722,,,,,31.78,7.73,1.83,61.0788321495
0.00494426861405,0.0524278059602,-1.0020160675,64.6758351326,,,,,30.01,10.59,3.11,61.0792300701
0.00667755305767,0.0544925779104,-1.00372946262,64.7140359879,,,,,24.4,11.77,3.59,61.079595089
0.00902476534247,0.059780061245,-0.991166949272,64.7164301872,,,,,23.2,10.11,3.12,61.0799591541
0.00195223849732,0.0632560774684,-0.983796477318,64.7188260555,,,,,23.65,7.84,2.48,61.0803229809
6.86385901645e-05,0.060582369566,-0.977765202522,64.7212190628,,,,,26.0,5.87,1.7,61.0812320709
-0.00178403395694,0.0557830110192,-0.994231104851,64.7569720745,,,,,22.25,11.49,2.28,61.0816240311
-0.00330166332424,0.0687052607536,-1.00818789005,64.7593719959,,,,,19.11,12.17,2.2,61.0819890499
-0.00180333282333,0.0452515929937,-1.00618445873,64.7617740631,,,,,16.7,11.27,1.76,61.0823521614
-0.00609578751028,0.0134881101549,-0.99789750576,64.764206171,,,,,16.18,7.94,0.55,61.0827171803
0.00287145003676,0.0325084477663,-0.984089851379,64.7665979862,,,,,17.44,7.47,0.19,61.0836791992
0.0130226295441,0.0590417534113,-0.974769055843,64.8065111637,,,,,17.3,11.59,0.4,61.0840740204
0.0133132319897,0.046135507524,-0.994312405586,64.8089079857,,,,,13.09,11.73,-0.23,61.0844390392
0.0150296986103,0.0560681000352,-1.00140523911,64.8113059998,,,,,11.58,10.55,-0.69,61.0848021507
0.016169546172,0.0794740393758,-1.01061534882,64.8137531281,,,,,11.61,9.31,-1.0,61.0851659775
0.0183013863862,0.0735292434692,-1.00237190723,64.8161511421,,,,,15.27,9.15,-0.85,61.086078167
0.0243660993874,0.0506525412202,-0.982923269272,64.8567249775,,,,,14.85,10.46,-0.48,61.0864710808
0.01691371575,0.0487105995417,-0.980147480965,64.8591210842,,,,,12.13,9.91,-0.66,61.0868360996
0.0157846268266,0.0536032766104,-0.988842368126,64.8615159988,,,,,9.6,8.95,-0.75,61.0872001648
0.0126371765509,0.0516901910305,-0.996731877327,64.8639512062,,,,,9.69,7.63,-0.06,61.0875651836
-0.00414174981415,0.0595420524478,-1.00147414207,64.8663480282,,,,,12.67,7.67,0.47,61.088476181
0.00375823304057,0.0654548257589,-1.01340150833,64.9039270878,,,,,17.48,8.12,1.13,61.0888700485
0.0153051931411,0.0648614615202,-0.994824171066,64.9063241482,,,,,15.26,7.88,0.97,61.0892341137
0.00423820875585,0.0646751001477,-0.980725049973,64.9087221622,,,,,10.44,7.43,0.86,61.0895981789
-0.00307867303491,0.0643087401986,-0.976044118404,64.9111170769,,,,,10.37,7.65,0.96,61.0899620056
0.00207424908876,0.0678533539176,-0.985962748528,64.9474701881,,,,,15.37,8.05,0.68,61.090873003
0.0115771396086,0.0747577771544,-0.980721592903,64.9498691559,,,,,18.74,7.65,-0.05,61.0912680626
0.00866398401558,0.0626002028584,-0.970514237881,64.9522612095,,,,,15.0,6.89,-0.38,61.0916290283
-0.015677548945,0.0571142956614,-0.981120109558,64.954706192,,,,,12.81,6.88,-0.36,61.0919950008
-0.0239023752511,0.0661075040698,-0.997157931328,64.9571011066,,,,,11.92,7.76,-0.63,61.092359066
-0.0167397223413,0.0642080977559,-0.995895385742,64.996183157,,,,,12.91,8.05,-0.95,61.0933041573
-0.00265119969845,0.0667928755283,-0.989758610725,64.9985830784,,,,,14.58,6.85,-1.62,61.0937001705
-0.00349644571543,0.0804338902235,-0.972612082958,65.0009791851,,,,,13.63,6.38,-1.34,61.094066143
-0.013545807451,0.0766508802772,-0.975417971611,65.0034160614,,,,,12.87,6.26,-0.77,61.0944302082
-0.0142100714147,0.0481184720993,-0.997944712639,65.0058140755,,,,,12.9,6.73,-0.79,61.0947930813
-0.00371488556266,0.06399987638,-0.998000621796,65.045717001,,,,,12.59,7.52,-1.6,61.0957241058
0.00697420723736,0.0869317501783,-1.00844919682,65.048112154,,,,,12.12,7.3,-3.02,61.0961182117
-0.00169118295889,0.0760217085481,-1.01703250408,65.0505042076,,,,,14.42,6.61,-3.96,61.0964820385
-0.00955924578011,0.0690452829003,-1.01003301144,65.0529351234,,,,,15.81,6.22,-4.11,61.0968461037
-0.00318524427712,0.0853783115745,-0.988883852959,65.0899322033,,,,,15.51,5.62,-3.86,61.0972120762
-0.00111852947157,0.10750849545,-0.980845689774,65.0923340321,,,,,12.87,5.51,-3.56,61.0981202126
0.0144648579881,0.10930711031,-0.97975897789,65.0947780609,,,,,7.13,4.92,-3.05,61.09851408
0.0101812100038,0.0780994519591,-0.988044261932,65.0971670151,,,,,9.14,4.42,-3.04,61.0988790989
-0.00431078486145,0.0617525354028,-0.994832515717,65.0995621681,,,,,14.44,3.24,-2.64,61.0992431641
0.0101615712047,0.0598879307508,-0.981491446495,65.1359770298,,,,,14.71,3.06,-2.22,61.0996081829
0.00669197179377,0.0637952238321,-0.964864134789,65.1383750439,,,,,7.85,4.62,-1.24,61.1005179882
-0.00977603904903,0.0660644024611,-0.982267141342,65.1407721043,,,,,0.95,6.32,-0.91,61.1009101868
-0.00807042792439,0.0539681985974,-1.00509488583,65.1432011127,,,,,4.3,5.57,-0.93,61.1012752056
0.00464280508459,0.0603420287371,-1.00428462029,65.14559412,,,,,8.11,4.49,-0.79,61.1016411781
0.00414751283824,0.0770518779755,-0.99652826786,65.1863040924,,,,,10.85,3.7,-0.05,61.1020050049
0.00210998207331,0.0692986249924,-0.991411447525,65.1887011528,,,,,8.83,4.25,0.14,61.1029469967
-0.00492404960096,0.0518117547035,-1.01130640507,65.1910960674,,,,,-0.41,5.38,0.02,61.1033420563
-0.0118159204721,0.053386375308,-1.01446688175,65.1935260296,,,,,-0.48,4.12,0.1,61.1037080288
-0.00248664803803,0.0669727995992,-0.99694955349,65.1959199905,,,,,2.4,1.26,1.06,61.1040711403
-0.00742597132921,0.0581322982907,-0.975800275803,65.2354791164,,,,,3.17,0.65,1.73,61.1044352055
-0.00495095551014,0.0515572950244,-0.970879375935,65.2378749847,,,,,1.05,1.38,2.39,61.1053431034
0.00942426919937,0.0656734630466,-0.961317420006,65.2402710915,,,,,-3.5,1.43,1.95,61.1057350636
0.00930694956332,0.0518149733543,-0.962247133255,65.2426621914,,,,,-5.62,-0.9,1.63,61.1061000824
-0.00106449972373,0.0431929156184,-0.970180809498,65.280050993,,,,,-5.05,-1.85,1.64,61.1064631939
-0.00345061346889,0.0585892722011,-0.966490864754,65.2824511528,,,,,-3.78,-2.08,1.69,61.1068451405
-0.0040585771203,0.0585928782821,-0.960740685463,65.2848880291,,,,,-1.76,-0.55,1.81,61.1077539921
-0.0125538147986,0.0632161051035,-0.9810090065,65.2872881889,,,,,-1.48,-0.99,1.43,61.108148098
0.00301672518253,0.0732710361481,-0.986480116844,65.2897601128,,,,,-2.21,-1.83,1.36,61.1085121632
0.0085089225322,0.072509676218,-0.996619105339,65.3267710209,,,,,-2.91,-2.47,1.17,61.1088759899
0.00411948189139,0.0696650519967,-0.98954474926,65.3291721344,,,,,-3.34,-1.8,0.34,61.1092431545
0.00278882309794,0.0632216334343,-0.996564745903,65.3315720558,,,,,-2.83,-0.92,-0.21,61.110158205
0.00217630341649,0.0648386776447,-1.02686834335,65.3340120316,,,,,-0.05,-0.25,-0.81,61.1105520725
0.00750674959272,0.0453693270683,-1.04180395603,65.3364090919,,,,,-0.77,0.19,-0.26,61.1109161377
0.00508607551455,0.0277037192136,-1.02462995052,65.375991106,,,,,-2.74,0.9,0.05,61.1112802029
0.00831605214626,0.0557829588652,-0.988197565079,65.3783891201,,,,,-4.82,1.62,0.16,61.1116449833
0.0131372101605,0.0756278336048,-0.974489808083,65.3807830811,,,,,-6.18,1.67,0.01,61.1125559807
0.012183980085,0.0693358704448,-0.994416475296,65.3832201958,,,,,-0.07,0.42,0.88,61.112981081
0.00366911292076,0.0593282654881,-1.00801849365,65.385613203,,,,,1.2,1.09,1.55,61.1133451462
0.00712127238512,0.0550504699349,-1.02458381653,65.4251651764,,,,,0.67,2.18,2.33,61.113710165
0.0139244589955,0.0702401772141,-0.996887564659,65.4275631905,,,,,-4.63,3.21,3.4,61.1140730381
0.00814948696643,0.0729289576411,-0.978251218796,65.4299621582,,,,,-6.88,2.62,3.44,61.1149950027
-0.00441003218293,0.0430230796337,-1.00482940674,65.4323561192,,,,,-3.96,1.33,1.53,61.1153891087
-0.00950320065022,0.0537798926234,-1.0073723793,65.4698979855,,,,,-1.89,2.25,0.71,61.1157510281
0.0042210239917,0.0752958133817,-1.01168131828,65.472299099,,,,,-1.27,4.44,-0.55,61.1161160469
0.0118673006073,0.0698354244232,-0.993507504463,65.4747281075,,,,,-3.2,4.64,-0.92,61.1164801121
-0.00392106734216,0.0763166993856,-0.969657123089,65.4771251678,,,,,-5.25,2.5,-2.64,61.1174280643
-0.0095404330641,0.0697185993195,-0.971057534218,65.4795260429,,,,,-1.69,4.01,-3.99,61.1498069763
0.00415406189859,0.0607444122434,-0.980014920235,65.5161581039,,,,,-0.2,5.21,-4.39,61.1501760483
0.00212268531322,0.0607115626335,-0.991498112679,65.518556118,,,,,0.24,5.82,-4.52,61.1505410671
-0.0140232630074,0.0622767731547,-1.01220178604,65.5209510326,,,,,-1.46,4.08,-3.96,61.1509051323
-0.0135686695576,0.0519878417253,-1.01172864437,65.5233840942,,,,,-2.64,2.39,-3.41,61.1518139839
-0.00173980544787,0.0754114463925,-0.9976323843,65.5257840157,,,,,-3.29,2.32,-1.94,61.1522071362
0.00455464422703,0.0888396725059,-0.980895638466,65.5659270287,,,,,-3.67,3.83,-1.72,61.1525700092
0.0190765429288,0.0765804573894,-0.988510727882,65.5683221817,,,,,-5.83,4.58,-1.71,61.1529760361
0.0161062087864,0.071843393147,-1.00245833397,65.5707190037,,,,,-6.74,3.33,-1.73,61.1533432007
-0.0030106510967,0.0803369581699,-1.00399708748,65.573154211,,,,,-6.64,-0.04,-0.38,61.1542510986
-0.00502886809409,0.0652345344424,-0.987187027931,65.5755541325,,,,,-5.92,0.44,0.22,61.1546452045
0.00446140393615,0.0520963892341,-0.974077224731,65.6162850857,,,,,-7.29,2.13,0.86,61.155009985
0.0122454855591,0.0514996126294,-0.986096143723,65.6186800003,,,,,-9.19,1.86,0.82,61.1553730965
0.00834582280368,0.0586626604199,-0.977848410606,65.6210751534,,,,,-12.38,-0.65,0.79,61.1557371616
0.0016450547846,0.0722148939967,-0.98110473156,65.6235160828,,,,,-12.29,-1.81,1.12,61.1566491127
0.00355974584818,0.079404078424,-0.986318826675,65.6584420204,,,,,-8.42,-2.14,2.14,61.1570429802
0.0062439776957,0.0802387446165,-1.00079488754,65.6608381271,,,,,-8.17,-2.36,1.72,61.1574060917
0.0108080348,0.0818724483252,-1.0074480772,65.6633050442,,,,,-10.4,-3.99,0.2,61.15777421
0.015115564689,0.0775143802166,-1.01756215096,65.665705204,,,,,-11.26,-4.9,-0.28,61.1581380367
-0.000950332614593,0.0685324519873,-1.02775514126,65.6681010723,,,,,-8.96,-4.98,-0.24,61.1590499878
-0.0183011107147,0.059055134654,-1.01989674568,65.7066390514,,,,,-5.21,-3.75,0.0,61.1594421864
-0.0215788297355,0.0543308779597,-1.01867043972,65.7090330124,,,,,-5.02,-4.47,-0.92,61.1598072052
-0.0253631956875,0.0604440867901,-1.02955186367,65.7114310265,,,,,-6.17,-5.29,-1.36,61.1601719856
-0.0224412456155,0.0753157958388,-1.00703310966,65.7138631344,,,,,-7.01,-6.29,-1.13,61.1605360508
-0.0111988186836,0.0886937379837,-0.981993913651,65.7162611485,,,,,-6.26,-6.03,-0.51,61.1987040043
0.0012108964147,0.100757569075,-0.983250975609,65.7558591366,,,,,-4.85,-5.22,-0.11,61.1991000175
0.00248133763671,0.0832480639219,-0.978397130966,65.7582521439,,,,,-5.96,-5.56,-0.66,61.1994640827
-0.000589406001382,0.0768332928419,-0.983426690102,65.7606470585,,,,,-6.69,-6.51,-1.56,61.1998291016
-0.000421179342084,0.0985083952546,-0.975405991077,65.7630782127,,,,,-5.27,-6.66,-1.5,61.2001922131
-0.00297110900283,0.0999478027225,-0.965198218822,65.7654790878,,,,,-1.13,-6.98,-0.75,61.2011020184
-0.00918246805668,0.0940604805946,-0.958262860775,65.8053431511,,,,,-0.52,-8.36,-0.82,61.2014930248
-0.00392581149936,0.0734437704086,-0.962419331074,65.8077430725,,,,,-3.61,-9.64,-1.07,61.2018589973
-0.00235336087644,0.0557829588652,-0.967643976212,65.8101420403,,,,,-3.99,-9.84,-0.8,61.2022230625
-0.0173240602016,0.0459523722529,-0.968183159828,65.812541008,,,,,-2.79,-9.61,-0.22,61.2025880814
-0.014305524528,0.0519666448236,-0.96254581213,65.848582983,,,,,1.17,-9.15,1.02,61.2035431862
-0.00286011397839,0.0673426762223,-0.978673458099,65.8509790897,,,,,-3.58,-10.8,1.31,61.2039370537
0.00684654153883,0.0770318731666,-0.970484018326,65.8534300327,,,,,-6.42,-11.34,1.36,61.2043020725
0.00864860229194,0.0728486925364,-0.96833717823,65.8561520576,,,,,-6.71,-11.15,2.14,61.2046670914
-0.00100785668474,0.0658935457468,-0.976806998253,65.8585391045,,,,,-3.48,-10.75,2.45,61.2050330639
-5.53874997422e-05,0.0749642625451,-0.985241532326,65.8962390423,,,,,0.29,-10.44,2.52,61.205946207
0.00944989267737,0.0733992829919,-1.00137543678,65.8986361027,,,,,0.82,-10.89,2.33,61.2063372135
0.00617638044059,0.05428417027,-0.993451237679,65.9010360241,,,,,-4.13,-11.25,2.68,61.206703186
0.00431964918971,0.0493053346872,-0.974739253521,65.9034800529,,,,,-4.6,-10.98,2.87,61.2070660591
-0.00280951336026,0.0524425879121,-0.971960544586,65.9058790207,,,,,-3.32,-10.78,2.8,61.207431078
-0.0144328586757,0.054495126009,-0.98349905014,65.9460561275,,,,,0.53,-10.93,2.26,61.208340168
-0.0142717920244,0.0573577061296,-0.995618700981,65.9484541416,,,,,-4.07,-12.05,2.85,61.2087330818
-0.0158155858517,0.0534796789289,-1.00263845921,65.950854063,,,,,-6.69,-11.97,3.39,61.2090990543
-0.00959542766213,0.0675067976117,-0.999285340309,65.9533741474,,,,,-8.21,-11.54,3.6,61.2094631195
0.00308758020401,0.0799886882305,-0.968095123768,65.955780983,,,,,-8.47,-9.97,2.77,61.2098281384
0.0128242634237,0.076151303947,-0.969077408314,65.9938650131,,,,,-7.94,-9.27,1.89,61.24578619
0.0195223186165,0.0617115870118,-0.986600518227,65.996265173,,,,,-8.41,-7.61,0.26,61.2461791039
0.00349146872759,0.0453628078103,-0.997747063637,65.9986650944,,,,,-8.62,-7.29,0.42,61.2465441227
0.00373939238489,0.0609887763858,-0.978092312813,66.0010650158,,,,,-8.64,-6.78,0.62,61.2469091415
0.0189487691969,0.0918562561274,-0.951414048672,66.0369842052,,,,,-9.15,-6.3,0.41,61.2472732067
-0.0022579934448,0.0884771198034,-0.947611272335,66.0393869877,,,,,-12.17,-5.23,-0.72,61.2481861115
-0.00382192805409,0.0761441811919,-0.973993241787,66.0418081284,,,,,-11.48,-3.83,-2.74,61.2486021519
0.0122692734003,0.0736611038446,-0.97221660614,66.0442690849,,,,,-9.44,-4.04,-3.02,61.248980999
0.00305994972587,0.064727909863,-0.981653928757,66.0466661453,,,,,-7.85,-4.49,-3.03,61.2493491173
0.00608508475125,0.0729938521981,-0.996703624725,66.0864231586,,,,,-9.86,-4.98,-2.49,61.2497119904
0.0187746211886,0.0815938040614,-1.00429880619,66.0888180733,,,,,-13.39,-4.63,-2.08,61.2506229877
0.0129759050906,0.0796785205603,-1.01104021072,66.0912151337,,,,,-15.37,-3.81,-2.11,61.251019001
0.0167731530964,0.0800843834877,-1.00348210335,66.0936532021,,,,,-11.28,-4.24,-2.26,61.2513840199
0.0217996239662,0.0727936252952,-0.986768722534,66.0960490704,,,,,-4.04,-5.63,-1.83,61.251748085
-0.00317120552063,0.0590271726251,-0.981083393097,66.1355822086,,,,,-4.25,-5.71,-1.16,61.2521121502
-0.0088957939297,0.0556419417262,-0.98175907135,66.1379811764,,,,,-11.25,-4.52,0.19,61.2530670166
0.00933896843344,0.0629910379648,-0.981351971626,66.140376091,,,,,-16.32,-4.08,0.43,61.2534620762
0.0020615644753,0.0638034567237,-0.989654779434,66.1427750587,,,,,-12.17,-5.9,-0.16,61.2538290024
-0.00547359883785,0.0635777637362,-1.01351034641,66.1452100277,,,,,-9.67,-6.81,-0.38,61.2541952133
0.00165287230629,0.0614601075649,-1.02906084061,66.1839570999,,,,,-10.06,-7.13,-0.64,61.2545590401
-0.00477616488934,0.0614880844951,-1.02052485943,66.1863570213,,,,,-12.56,-6.78,-0.95,61.2554721832
-0.00608124770224,0.065150603652,-1.00050401688,66.1887540817,,,,,-18.83,-7.76,-2.02,61.255865097
0.00501591339707,0.0597412139177,-0.989465475082,66.1911551952,,,,,-18.22,-8.81,-1.99,61.2562291622
0.0244024135172,0.0580722764134,-0.999046206474,66.2273600101,,,,,-15.42,-9.51,-0.96,61.2906119823
0.0235343612731,0.0565724372864,-0.992776274681,66.2297620773,,,,,-14.29,-9.21,-0.25,61.290982008
0.0105557898059,0.0714785978198,-0.991846084595,66.2321610451,,,,,-13.8,-8.88,0.7,61.2918980122
0.0147813297808,0.0863980054855,-1.00048792362,66.2345991135,,,,,-14.61,-11.18,1.05,61.2922902107
0.0250311084092,0.0711113959551,-1.01524305344,66.2369999886,,,,,-15.52,-13.37,1.73,61.2926549911
0.0172674637288,0.0561228469014,-1.00326216221,66.2761080265,,,,,-14.72,-13.34,2.01,61.2930572033
0.0046120248735,0.0609303489327,-0.998942494392,66.278512001,,,,,-10.78,-11.56,2.02,61.2934241295
0.00782397761941,0.0760309249163,-0.991426587105,66.2809121609,,,,,-8.49,-11.02,1.7,61.2943351269
0.0156363733113,0.0849074050784,-0.977009654045,66.2833480835,,,,,-7.0,-13.5,0.61,61.2947280407
0.0195663049817,0.0698001906276,-0.981453895569,66.285752058,,,,,-8.68,-14.25,0.51,61.2950940132
0.018372008577,0.0618157237768,-0.995827198029,66.3255240917,,,,,-10.34,-14.01,0.21,61.2954580784
0.0110464105383,0.0575945153832,-1.01243388653,66.3279211521,,,,,-9.12,-13.27,-0.02,61.2958230972
0.0134028913453,0.0641888007522,-1.01206934452,66.3303170204,,,,,-3.91,-12.9,-0.42,61.2967321873
0.00522705540061,0.0634981095791,-1.00772643089,66.3327121735,,,,,-1.31,-13.52,-0.03,61.2971260548
-0.00605651922524,0.0638114660978,-1.00355052948,66.3698949814,,,,,-5.14,-12.93,0.77,61.2974910736
0.00549175031483,0.0823851451278,-0.995953083038,66.3723011017,,,,,-8.4,-12.22,1.07,61.2978560925
0.0187610313296,0.0857236459851,-0.983678936958,66.3747391701,,,,,-10.8,-11.7,1.1,61.298222065
0.0183531045914,0.0774580165744,-0.973562419415,66.3771371841,,,,,-11.17,-12.06,0.78,61.299131155
0.00523261912167,0.0685282945633,-0.989417552948,66.3795289993,,,,,-6.96,-12.48,1.28,61.2995259762
-0.00854072161019,0.0756142958999,-1.00086200237,66.4160430431,,,,,-7.6,-11.67,1.86,61.299890995
-0.0084136184305,0.0634543821216,-1.00135171413,66.4184420109,,,,,-13.06,-10.44,3.18,61.3002550602
-0.0129239298403,0.0439856871963,-1.00293183327,66.4208331108,,,,,-15.9,-10.84,3.61,61.3006191254
-0.0152923241258,0.0530488863587,-0.997707486153,66.4232711792,,,,,-16.8,-12.74,4.03,61.3015360832
-0.00744699686766,0.061908595264,-0.985427498817,66.4256701469,,,,,-11.96,-13.36,4.21,61.3396551609
-0.0140452347696,0.0599744319916,-0.985430121422,66.4662330151,,,,,-8.65,-11.91,4.49,61.3400201797
-0.00344783812761,0.0693897902966,-0.994299888611,66.4686250687,,,,,-9.32,-11.4,4.56,61.3403851986
0.0129648447037,0.0680434405804,-0.984096765518,66.4710211754,,,,,-11.14,-11.51,4.44,61.3407490253
0.0194711200893,0.0689434409142,-0.974440217018,66.4734539986,,,,,-12.72,-13.01,3.34,61.3416600227
0.0280903428793,0.0798376724124,-0.969353616238,66.4758520126,,,,,-7.89,-11.48,1.92,61.3420541286
0.0295267887414,0.0734108537436,-0.968915402889,66.5153861046,,,,,-6.47,-10.18,1.84,61.3424181938
0.0295845177025,0.0696654319763,-0.97335088253,66.5177810192,,,,,-6.34,-9.22,1.86,61.3427832127
0.0305685065687,0.0826819017529,-0.986277937889,66.5201749802,,,,,-9.23,-9.66,1.63,61.3431811333
0.014790745452,0.0705135762691,-0.982586503029,66.5225710869,,,,,-11.11,-11.13,0.9,61.3440871239
0.0059772580862,0.0643267631531,-0.988830566406,66.5600261688,,,,,-10.25,-9.59,0.81,61.3444781303
0.00990345422179,0.0695669874549,-1.00484120846,66.5624251366,,,,,-9.37,-7.45,1.43,61.3448431492
0.00314177200198,0.0627183616161,-1.00389695168,66.5648550987,,,,,-9.34,-7.53,1.53,61.3452072144
-0.0159031488001,0.0515052676201,-1.01553618908,66.5672550201,,,,,-9.61,-8.45,1.42,61.3455731869
-0.0178287066519,0.0559525564313,-1.03286790848,66.5696539879,,,,,-10.11,-10.4,0.98,61.3464851379
-0.0209438055754,0.0594674572349,-1.03626286983,66.6067922115,,,,,-9.46,-7.35,0.86,61.3468780518
-0.0195415839553,0.0522560104728,-1.02226829529,66.6091849804,,,,,-9.8,-6.3,0.87,61.3472440243
-0.00395578704774,0.0652302205563,-1.01451206207,66.6115791798,,,,,-9.87,-6.45,0.69,61.3476080894
-0.00302662700415,0.0723495781422,-1.00975930691,66.6140151024,,,,,-9.04,-9.2,0.69,61.3479731083
0.00293898023665,0.0755556747317,-1.00188148022,66.6164121628,,,,,-8.11,-10.57,1.21,61.3488781452
0.0106176957488,0.085132792592,-1.00465428829,66.6559131145,,,,,-6.39,-9.01,2.86,61.3492720127
0.0140032796189,0.0807385891676,-1.01234102249,66.6583111286,,,,,-7.82,-7.88,2.48,61.349640131
0.0227580554783,0.0754553377628,-1.00999403,66.6610271931,,,,,-12.16,-8.32,0.43,61.3500030041
0.00466025620699,0.0790326222777,-0.992087364197,66.663490057,,,,,-13.47,-9.63,-0.33,61.3503670692
-0.017426032573,0.0717136487365,-0.989121556282,66.6658899784,,,,,-12.46,-11.77,0.15,61.3886611462
-0.0125090070069,0.0687770247459,-1.01086628437,66.705520153,,,,,-9.27,-11.25,1.34,61.3890571594
-0.0040659531951,0.0731660202146,-1.01026582718,66.7079172134,,,,,-9.77,-10.18,0.27,61.3894221783
-0.0135546512902,0.0694063901901,-1.01450967789,66.7104401588,,,,,-11.52,-10.11,-0.72,61.3897900581
-0.0243339985609,0.0632580071688,-0.999978065491,66.7129011154,,,,,-13.18,-10.77,-1.28,61.3901531696
-0.00698138400912,0.0699198320508,-1.0267611742,66.7499120235,,,,,-12.12,-10.84,-0.39,61.3910651207
-0.00408912822604,0.0626408159733,-1.05552744865,66.7523200512,,,,,-5.12,-10.79,2.42,61.3914570808
-0.0177477262914,0.0693812817335,-1.06024909019,66.7547540665,,,,,-4.19,-10.88,2.25,61.391821146
-0.00639680400491,0.0792183429003,-1.05088829994,66.7571539879,,,,,-5.55,-11.04,1.41,61.3921852112
0.0235268902034,0.0562733709812,-1.04324650764,66.7595500946,,,,,-6.31,-10.8,1.5,61.3925499916
0.0344575718045,0.0564181059599,-1.0194631815,66.7960979939,,,,,-4.94,-9.45,3.25,61.393501997
0.0322842337191,0.0673750042915,-0.995881199837,66.7984921932,,,,,-4.6,-9.68,3.37,61.3938951492
0.0313723273575,0.0616660788655,-0.993522286415,66.8008921146,,,,,-5.49,-11.17,2.63,61.3942592144
0.0167001374066,0.0526343584061,-1.0025998354,66.8033330441,,,,,-6.26,-11.84,2.42,61.3946220875
0.00591984204948,0.0537992417812,-0.993547916412,66.8057341576,,,,,-4.91,-12.23,2.96,61.3949871063
0.00624716002494,0.0550996139646,-1.00900173187,66.8460390568,,,,,-2.94,-12.1,3.35,61.3959000111
0.00429468229413,0.0437188744545,-1.02752947807,66.8484280109,,,,,-1.69,-12.72,3.28,61.3962931633
-0.00992245972157,0.0470781549811,-1.02424633503,66.8508431911,,,,,-2.62,-13.34,2.77,61.3966732025
-0.0124701596797,0.0539288669825,-1.03106975555,66.853302002,,,,,-2.35,-13.68,2.25,61.3970451355
0.000335089978762,0.0553700849414,-1.01965332031,66.8557021618,,,,,-0.1,-13.53,2.24,61.3974120617
0.0038554482162,0.0523893237114,-1.01937186718,66.8951170444,,,,,4.25,-13.44,2.46,61.3983230591
-0.0149899236858,0.037493981421,-1.0334546566,66.8975160122,,,,,1.66,-14.29,2.59,61.3987150192
-0.0213206447661,0.0409611612558,-1.04578924179,66.8999111652,,,,,-4.14,-14.84,2.45,61.3990809917
-0.0124338194728,0.0617653056979,-1.04558026791,66.9023079872,,,,,-4.5,-14.51,2.45,61.3994441032
-0.0206483267248,0.0600947216153,-1.02938938141,66.9384710789,,,,,-0.34,-13.28,2.88,61.3998091221
-0.0294000841677,0.061700090766,-1.0002143383,66.9408721924,,,,,1.63,-12.93,3.16,61.435573101
-0.0200872831047,0.0627796053886,-0.982295870781,66.9433062077,,,,,-5.2,-13.32,3.73,61.4359660149
0.00116340268869,0.0636094436049,-0.979187607765,66.9457001686,,,,,-8.33,-13.31,3.56,61.4363319874
0.00162529584486,0.0616109371185,-0.984006166458,66.9480960369,,,,,-6.75,-12.27,2.89,61.4366960526
-0.00506292842329,0.0490159392357,-0.983209371567,66.9866690636,,,,,-3.06,-11.2,2.52,61.4370610714
-0.00473243743181,0.0508424043655,-1.00258171558,66.9890570641,,,,,0.38,-10.18,2.08,61.4379730225
-0.00124010990839,0.0661960616708,-1.01371943951,66.9914500713,,,,,-3.19,-7.51,0.67,61.4383661747
-0.00152636494022,0.0658090934157,-1.02608633041,66.9938840866,,,,,-8.47,-6.46,-0.12,61.4387290478
-0.00109979498666,0.0547808483243,-1.02713143826,66.9962790012,,,,,-7.42,-6.13,-0.12,61.4390931129
6.88072759658e-06,0.0527968481183,-1.02272427082,67.0357990265,,,,,-4.34,-5.89,0.13,61.4394571781
-0.00155767041724,0.0617164224386,-1.02834284306,67.0381929874,,,,,0.43,-5.33,1.0,61.4403660297
0.0190821550786,0.0727164670825,-1.01980984211,67.0405871868,,,,,-5.5,-3.14,0.21,61.4407601357
0.0252947360277,0.0851570367813,-1.03691673279,67.0430271626,,,,,-7.42,-2.48,-0.24,61.4411230087
0.0173145588487,0.0824783220887,-1.05442142487,67.0454330444,,,,,-7.16,-2.26,-0.35,61.4414870739
0.0129273254424,0.0708780288696,-1.05342948437,67.0853271484,,,,,-3.12,-2.84,0.98,61.4418511391
0.00106213439722,0.0731632485986,-1.05205440521,67.0877270699,,,,,-2.32,-3.07,2.08,61.4427611828
0.00262367166579,0.0824752524495,-1.04819607735,67.0901219845,,,,,-6.78,-2.26,2.33,61.4431891441
0.0145307183266,0.0903947204351,-1.03905975819,67.0925211906,,,,,-6.65,-1.54,0.94,61.443554163
0.00846211332828,0.0794276893139,-1.02871966362,67.1283349991,,,,,-4.73,-1.87,0.97,61.4439179897
-0.00333604030311,0.0665517225862,-1.03649044037,67.1307361126,,,,,-3.04,-2.44,1.76,61.4442820549
-0.0148135013878,0.0645788908005,-1.04567301273,67.1331651211,,,,,-5.15,-3.51,4.69,61.4451930523
-0.0200379006565,0.0692181959748,-1.03903603554,67.1355659962,,,,,-12.53,-3.31,6.1,61.4455881119
-0.0245807506144,0.0576189309359,-1.05229878426,67.1379570961,,,,,-11.56,-3.46,5.62,61.445952177
-0.0227815918624,0.0568748563528,-1.05580925941,67.1760530472,,,,,-9.03,-3.93,5.1,61.4805161953
-0.0215252749622,0.0707314386964,-1.04830908775,67.1784482002,,,,,-4.39,-5.08,4.6,61.4808821678
-0.0124850124121,0.0753024220467,-1.04467213154,67.180847168,,,,,-5.04,-5.15,4.82,61.4817950726
-0.0183721370995,0.0669077038765,-1.0509428978,67.1832811832,,,,,-10.96,-3.85,4.94,61.4821879864
-0.0320623144507,0.0641278326511,-1.05101299286,67.1856791973,,,,,-10.16,-3.85,4.47,61.4825520515
-0.0127828605473,0.071013122797,-1.06686639786,67.2257590294,,,,,-4.27,-4.65,3.06,61.4829521179
0.00180549744982,0.0684851333499,-1.07051861286,67.2281601429,,,,,-1.58,-4.85,2.4,61.4833180904
-0.00293926149607,0.0610192641616,-1.05684828758,67.230561018,,,,,-1.4,-3.96,2.2,61.4842300415
0.00436514243484,0.0514777749777,-1.05518007278,67.2329931259,,,,,-5.14,-3.41,3.08,61.4846220016
0.00167606782634,0.0452731251717,-1.04362416267,67.2353901863,,,,,-5.93,-4.89,3.83,61.4849870205
-0.00667482987046,0.0459590554237,-1.02184545994,67.273815155,,,,,-5.16,-5.59,4.01,61.485350132
-0.00862403586507,0.0647923350334,-1.02292156219,67.2762110233,,,,,-4.02,-4.95,4.18,61.4857170582
0.0030185431242,0.0793401449919,-1.01850807667,67.2786080837,,,,,-3.95,-3.86,4.27,61.4866271019
0.0142001714557,0.0857631415129,-1.01494681835,67.2810001373,,,,,-4.56,-3.25,3.64,61.4870200157
-0.00924981944263,0.0701339393854,-1.03641748428,67.3169181347,,,,,-4.2,-4.5,2.8,61.4873850346
-0.0195026807487,0.0540825501084,-1.05365824699,67.319314003,,,,,-3.89,-5.55,1.3,61.4877471924
-0.00102604355197,0.062010243535,-1.04971003532,67.3217120171,,,,,-3.72,-4.82,1.01,61.4881122112
-0.0063785687089,0.0705147013068,-1.04465377331,67.3241481781,,,,,-1.76,-2.1,1.17,61.4890232086
-0.0201013050973,0.0744764357805,-1.05027556419,67.3265450001,,,,,1.7,-1.88,0.43,61.4894139767
-0.0205463729799,0.0751601606607,-1.05604529381,67.3664531708,,,,,2.55,-4.39,-1.26,61.4897801876
-0.017652913928,0.0713280141354,-1.05553889275,67.3688461781,,,,,1.04,-5.06,-1.65,61.4901430607
-0.00122382852715,0.0634659156203,-1.0661367178,67.3712370396,,,,,-3.75,-3.73,-0.77,61.4905061722
0.00115470972378,0.0562939271331,-1.08256614208,67.3736541271,,,,,-4.81,-2.37,-0.09,61.4914121628
-0.0100860074162,0.0623964294791,-1.088960886,67.3760471344,,,,,0.95,-1.89,-0.86,61.5295140743
-0.00988692417741,0.0781767144799,-1.09917640686,67.4156692028,,,,,2.56,-2.82,-1.35,61.5298790932
-0.00345898233354,0.114035844803,-1.11939942837,67.4180660248,,,,,0.35,-3.28,-1.0,61.5302431583
-0.000584099325351,0.107170574367,-1.11675858498,67.4204590321,,,,,-3.0,-2.35,-0.3,61.5306060314
-0.00280950218439,0.0907077416778,-1.10829043388,67.4228920937,,,,,-6.39,-0.55,-0.27,61.5315170288
-0.0114195123315,0.0956913307309,-1.10158407688,67.4252941608,,,,,-0.89,-0.86,-2.7,61.531910181
-0.0141311399639,0.0896454006433,-1.08893561363,67.4640140533,,,,,5.57,-2.25,-3.63,61.5322751999
0.00101027649362,0.0650438070297,-1.06718492508,67.4664120674,,,,,5.77,-2.23,-2.72,61.5326399803
0.00402554497123,0.0595146343112,-1.06745576859,67.4688091278,,,,,-0.69,-1.02,0.19,61.533039093
-0.00912181474268,0.0759343057871,-1.07488751411,67.4712040424,,,,,-5.04,-0.8,1.0,61.5339531898
-0.0280978791416,0.0816554501653,-1.0900592804,67.5072641373,,,,,-8.18,-3.05,0.0,61.5343461037
-0.0333253070712,0.0739622935653,-1.10583758354,67.5096611977,,,,,-6.52,-3.84,0.35,61.5347111225
-0.0278325341642,0.0708566382527,-1.12006402016,67.512057066,,,,,-3.8,-4.03,3.02,61.5350761414
-0.0178932435811,0.0700062662363,-1.11163175106,67.5144901276,,,,,-4.11,-3.91,4.5,61.5354390144
-0.0130694024265,0.0679398775101,-1.1186542511,67.5168821812,,,,,-8.46,-4.83,5.69,61.5363650322
-0.0152286887169,0.0695647224784,-1.11749851704,67.5562090874,,,,,-11.11,-6.44,4.21,61.5367591381
-0.00302542373538,0.0506815314293,-1.1018460989,67.5586051941,,,,,-7.68,-5.57,3.16,61.5371201038
0.0255975425243,0.0543525591493,-1.09410655499,67.5611171722,,,,,-3.79,-4.51,2.94,61.5374851227
0.0360077396035,0.069344766438,-1.09469306469,67.5635640621,,,,,0.11,-3.69,2.72,61.5378491879
0.0136280655861,0.077665746212,-1.10197687149,67.5659639835,,,,,2.76,-3.87,1.94,61.5387620926
0.00678059831262,0.0688501819968,-1.0973212719,67.605713129,,,,,-5.27,-4.81,0.46,61.5391550064
0.0193793680519,0.0700019672513,-1.08757960796,67.6081101894,,,,,-6.59,-3.56,0.46,61.5395200253
0.01995985955,0.0821843743324,-1.07474040985,67.6105051041,,,,,-3.45,-0.6,0.8,61.5398840904
0.0130891688168,0.0785769075155,-1.0684466362,67.612940073,,,,,-0.91,0.0,0.89,61.5402472019
0.00626669451594,0.086721137166,-1.03952395916,67.6499040127,,,,,0.36,-0.38,0.87,61.5784220695
0.00627348292619,0.0812322050333,-1.02346301079,67.6523220539,,,,,-6.52,-3.31,0.56,61.5788149834
0.00892746355385,0.0734155401587,-1.02579641342,67.6547660828,,,,,-8.82,-2.03,0.53,61.5791811943
0.0031303986907,0.0726896822453,-1.00770831108,67.6571609974,,,,,-6.93,-0.61,0.56,61.5795450211
0.00436515174806,0.0662429258227,-1.01053965092,67.6595580578,,,,,-4.05,0.69,0.49,61.5799090862
-0.0090557821095,0.0575389117002,-1.01130843163,67.6969430447,,,,,-0.99,1.43,-0.16,61.580821991
-0.0236724801362,0.0610287263989,-0.997715830803,67.6993401051,,,,,-7.85,0.05,-1.58,61.5812141895
-0.0264711305499,0.0640185400844,-1.01750659943,67.7017440796,,,,,-9.46,0.21,-1.76,61.581580162
-0.0199910439551,0.0599728226662,-1.04868888855,67.7041840553,,,,,-9.28,0.82,-1.58,61.5819439888
-0.0205892138183,0.0622554272413,-1.0432382822,67.7065811157,,,,,-5.12,2.59,-0.64,61.582308054
-0.0306590069085,0.0449280291796,-1.05205619335,67.7462530136,,,,,-3.71,3.15,-0.15,61.5832560062
-0.0203830264509,0.0394864454865,-1.05408155918,67.748650074,,,,,-6.58,1.99,-0.31,61.5836532116
-0.0259538702667,0.0586014837027,-1.06590032578,67.7510471344,,,,,-7.8,1.66,-0.81,61.584017992
-0.0301024410874,0.0772407278419,-1.09601819515,67.7534840107,,,,,-6.29,2.1,-1.12,61.5843801498
-0.0153222791851,0.0858617722988,-1.10801792145,67.7559111118,,,,,-3.75,2.73,-0.82,61.584758997
-0.0242864601314,0.0738091915846,-1.09730327129,67.7953650951,,,,,-0.68,3.48,0.26,61.5856831074
-0.0375595837831,0.0524966865778,-1.0979257822,67.7977650166,,,,,-4.19,1.34,0.0,61.5860772133
-0.0194752886891,0.0601535663009,-1.09697556496,67.8001589775,,,,,-5.37,1.27,-0.72,61.5864419937
0.00254229083657,0.0790296196938,-1.10982346535,67.8025569916,,,,,-5.57,1.79,-1.36,61.5868070126
-0.00333698652685,0.0691815018654,-1.12457120419,67.8400111198,,,,,-3.14,3.28,-1.39,61.5871710777
-0.0110839903355,0.0586416721344,-1.13759493828,67.8424170017,,,,,-2.12,3.41,-0.76,61.5880770683
-0.00109848740976,0.0799368992448,-1.14970803261,67.8448619843,,,,,-7.28,0.08,1.73,61.5884690285
-0.013037469238,0.0893872082233,-1.13782918453,67.8472599983,,,,,-9.93,-0.4,1.86,61.58883214
-0.0287794210017,0.0859415829182,-1.15123832226,67.849656105,,,,,-11.36,1.6,1.21,61.5891962051
-0.0238023214042,0.0848374739289,-1.15215015411,67.8867321014,,,,,-9.46,2.99,1.06,61.589564085
-0.0168369449675,0.0697237104177,-1.13694643974,67.889124155,,,,,-4.07,3.15,1.55,61.6241571903
-0.0111925043166,0.0646074339747,-1.13720214367,67.8915221691,,,,,-4.6,-0.13,2.69,61.6245510578
0.000123655539937,0.0785677358508,-1.14280545712,67.8939530849,,,,,-8.96,-1.51,2.79,61.624915123
-0.00123894202989,0.0676714777946,-1.14110302925,67.8963501453,,,,,-9.49,-0.31,2.27,61.6252801418
-0.0157961510122,0.0582878738642,-1.13925039768,67.9359300137,,,,,-4.73,3.15,1.54,61.6256511211
-0.0156119130552,0.0780819132924,-1.15752387047,67.9383311272,,,,,-0.63,3.62,1.57,61.6265451908
-0.0137465149164,0.0913304537535,-1.16643857956,67.9407260418,,,,,1.71,-0.06,2.3,61.6269381046
-0.0107611902058,0.0847230032086,-1.16740107536,67.9431550503,,,,,-1.03,-0.49,2.1,61.6273031235
-0.00388551130891,0.0787060558796,-1.16135215759,67.945554018,,,,,-3.91,2.17,0.63,61.6276671886
0.00895348004997,0.077138543129,-1.15757274628,67.985476017,,,,,-2.57,4.29,0.04,61.6280322075
0.000208987039514,0.0704264044762,-1.1499876976,67.987858057,,,,,3.64,6.26,0.23,61.6289420128
-0.0221506245434,0.0691605657339,-1.1660810709,67.9902532101,,,,,5.2,4.28,1.43,61.629335165
-0.017892818898,0.0665020048618,-1.16464185715,67.9926509857,,,,,-0.16,2.55,1.57,61.6297020912
-0.00677161104977,0.0752699822187,-1.145429492,68.0298511982,,,,,-2.12,2.69,0.87,61.6300661564
-0.0172186456621,0.0685690790415,-1.14589250088,68.032253027,,,,,-1.08,4.46,-0.66,61.6304299831
-0.0060755610466,0.0613577663898,-1.15441286564,68.0346860886,,,,,1.3,5.34,-0.8,61.6313390732
0.00261603668332,0.065160267055,-1.14500582218,68.0370810032,,,,,3.28,4.62,1.51,61.6317331791
-0.00304411537945,0.0578835308552,-1.15328395367,68.0394752026,,,,,0.48,3.58,2.23,61.6320970058
0.00853963941336,0.0746713504195,-1.18856263161,68.0761179924,,,,,-4.45,1.69,1.86,61.6324620247
-0.00640153326094,0.0713877826929,-1.19463920593,68.0785181522,,,,,-5.09,1.51,1.09,61.6328601837
-0.0146130286157,0.0585817918181,-1.18181848526,68.0809152126,,,,,-1.74,4.29,1.07,61.6337740421
-0.00345236249268,0.0573615282774,-1.17738294601,68.0833489895,,,,,-1.26,5.02,2.23,61.6341671944
-0.00305856578052,0.0514879673719,-1.18029165268,68.0857481956,,,,,-3.04,4.17,4.08,61.6345322132
-0.0158589221537,0.0462959185243,-1.16820859909,68.1257791519,,,,,-4.08,2.48,3.95,61.6704740524
-0.0213502831757,0.0523316264153,-1.16775977612,68.1281762123,,,,,-4.56,0.63,3.07,61.6708431244
-0.0207105316222,0.0572856590152,-1.16859829426,68.1305701733,,,,,-4.2,-0.48,0.62,61.6717591286
-0.018829267472,0.0653843432665,-1.17697989941,68.1329810619,,,,,-2.11,3.82,0.71,61.6721551418
-0.0122232735157,0.062917791307,-1.19276380539,68.1353781223,,,,,-0.73,4.67,1.03,61.6725201607
-0.00282779335976,0.0650192201138,-1.20062756538,68.1751461029,,,,,1.63,3.03,-0.39,61.6729199886
-0.00782994925976,0.0669809505343,-1.2031069994,68.1775400639,,,,,1.72,1.51,-2.08,61.6732871532
-0.0149082355201,0.0492496564984,-1.20712220669,68.1799371243,,,,,0.6,0.75,-3.88,61.6741981506
-0.0138830468059,0.0533130913973,-1.19744467735,68.1823310852,,,,,-5.22,4.62,-5.23,61.6745920181
-0.0269318409264,0.0633131936193,-1.18076395988,68.2184660435,,,,,-1.98,6.95,-3.4,61.6749560833
-0.0401106029749,0.0585432350636,-1.20099639893,68.2208640575,,,,,1.25,6.35,-2.93,61.6753191948
-0.0283887758851,0.0625663548708,-1.20593380928,68.2232971191,,,,,3.7,4.77,-2.95,61.6756830215
-0.0196696147323,0.0756950974464,-1.18590676785,68.225687027,,,,,2.63,2.26,-3.74,61.6765930653
-0.0162355266511,0.0905017927289,-1.16323816776,68.2280831337,,,,,-5.25,5.14,-2.44,61.6769881248
-0.00983071699739,0.0876473635435,-1.17184448242,68.2664020061,,,,,-4.0,5.96,-1.28,61.6773531437
-0.0118760429323,0.0560711622238,-1.18657255173,68.2687900066,,,,,-0.49,5.63,-0.27,61.6777219772
-0.0291364192963,0.0518452301621,-1.18852078915,68.2711811066,,,,,7.16,1.94,0.46,61.6780860424
-0.0428561270237,0.0485075712204,-1.19224321842,68.2736091614,,,,,8.44,0.09,0.24,61.6789979935
-0.0266711302102,0.0494748204947,-1.19626247883,68.2760000229,,,,,0.37,0.46,-0.79,61.6793930531
-0.016985218972,0.0621869415045,-1.19094347954,68.3157260418,,,,,-1.47,2.47,-0.84,61.6797571182
-0.0364725589752,0.0614696145058,-1.18660545349,68.3181240559,,,,,1.36,2.27,-0.93,61.6801211834
-0.0255103334785,0.0539758875966,-1.20098793507,68.3205211163,,,,,5.61,1.14,-1.16,61.6804850101
-0.00201047956944,0.0468886867166,-1.21814346313,68.3229501247,,,,,11.01,-1.6,-1.64,61.6813950539
-0.00530904904008,0.0556223466992,-1.21830916405,68.325345993,,,,,0.43,-1.28,-0.71,61.7192480564
-0.00785111822188,0.0722634792328,-1.20773088932,68.3652939796,,,,,-3.85,-0.54,0.06,61.7196161747
0.00504039041698,0.0805088579655,-1.20615327358,68.3676919937,,,,,-5.58,-0.3,0.87,61.7199811935
-0.0057903137058,0.0693045854568,-1.21215200424,68.3700840473,,,,,-0.38,-2.05,1.85,61.7203462124
-0.0222958065569,0.0566128492355,-1.21647405624,68.3724792004,,,,,3.58,-3.13,1.94,61.721255064
-0.0112090297043,0.0522528290749,-1.21740448475,68.4083061218,,,,,1.7,-2.33,1.42,61.7216491699
-0.00627934373915,0.0572858005762,-1.21260249615,68.4107060432,,,,,-2.96,-1.02,1.14,61.7220141888
-0.0115849040449,0.0536368042231,-1.21035861969,68.413146019,,,,,-8.36,0.55,0.71,61.7223770618
-0.0149259902537,0.061078235507,-1.20464360714,68.4155480862,,,,,-6.41,0.13,0.45,61.722741127
-0.0214250423014,0.067341722548,-1.19216704369,68.4179360867,,,,,2.05,-1.22,-0.29,61.7236840725
-0.0151824466884,0.077688112855,-1.20570373535,68.4562380314,,,,,3.73,-0.38,-1.27,61.7240781784
-0.0155231356621,0.0722381174564,-1.21323633194,68.4586331844,,,,,-4.12,1.79,-2.15,61.7244420052
-0.0139431841671,0.06811722368,-1.22612273693,68.4610290527,,,,,-8.3,2.34,-2.34,61.7248060703
-0.0126165561378,0.0605343207717,-1.23802387714,68.4634730816,,,,,-9.34,0.89,-1.85,61.7251701355
-0.013256508857,0.0355768203735,-1.24369883537,68.4658720493,,,,,-6.6,-0.37,-1.2,61.7260830402
-0.0160128958523,0.0453019067645,-1.24379050732,68.5060081482,,,,,-3.08,-1.07,0.6,61.7264771461
-0.0244455076754,0.0800447762012,-1.22148990631,68.5084052086,,,,,-5.66,-0.63,0.85,61.7268412113
-0.0164732038975,0.0840640962124,-1.22242891788,68.5109670162,,,,,-11.61,-0.38,0.69,61.7272071838
-0.0134052671492,0.0668707489967,-1.22922980785,68.5134260654,,,,,-12.08,-0.82,0.49,61.7275710106
-0.021500594914,0.079462826252,-1.22673141956,68.5158231258,,,,,-6.68,-1.47,0.86,61.7284801006
-0.0376048907638,0.076866351068,-1.2251316309,68.5539140701,,,,,-1.29,-0.62,2.24,61.7288742065
-0.0231913216412,0.0631815046072,-1.22243273258,68.5563089848,,,,,-3.47,0.04,3.23,61.7292361259
-0.00188537675422,0.0653953850269,-1.21413195133,68.5587131977,,,,,-6.24,0.03,2.84,61.7296001911
-0.0225167348981,0.0656711235642,-1.19254052639,68.561109066,,,,,-9.46,0.08,0.51,61.72996521
-0.0348201021552,0.0596609562635,-1.20082950592,68.5982429981,,,,,-8.84,0.5,-0.53,61.7683119774
-0.024806369096,0.0533515065908,-1.21447408199,68.6006441116,,,,,-4.97,1.95,-0.66,61.7687051296
-0.0232700221241,0.0599346682429,-1.21567595005,68.6030871868,,,,,-5.69,1.53,-0.39,61.7690691948
-0.0255291499197,0.0710662901402,-1.21607768536,68.6054852009,,,,,-9.74,-0.29,-1.23,61.7694342136
-0.0223480351269,0.0639185234904,-1.22462725639,68.607886076,,,,,-11.82,-0.91,-2.4,61.7697980404
-0.0316770076752,0.0573055967689,-1.21068191528,68.6463260651,,,,,-13.3,0.09,-4.14,61.7707099915
-0.0306768212467,0.0662394836545,-1.20717680454,68.6487221718,,,,,-11.23,2.26,-2.7,61.7711040974
-0.00613952614367,0.0802190154791,-1.22212815285,68.6511211395,,,,,-9.16,1.32,0.54,61.7714681625
-0.000433370354585,0.0792177915573,-1.23326444626,68.6535551548,,,,,-9.29,-0.29,1.69,61.7718331814
-0.0157926939428,0.0638931542635,-1.22584271431,68.6559531689,,,,,-11.62,-2.64,1.69,61.7721982002
-0.015542652458,0.0763378143311,-1.22963035107,68.6956679821,,,,,-12.69,-2.09,0.96,61.7731461525
-0.00805531814694,0.0725384280086,-1.2322691679,68.6980631351,,,,,-10.24,3.21,1.24,61.7735412121
-0.00999604165554,0.0452269166708,-1.21427738667,68.7004561424,,,,,-7.94,3.37,2.4,61.7739050388
-0.0270869247615,0.0469322502613,-1.20656263828,68.7028942108,,,,,-5.61,-0.28,4.43,61.774269104
-0.0203218087554,0.0566134154797,-1.21824479103,68.7052900791,,,,,-6.52,-2.7,4.57,61.7746331692
-0.00948265381157,0.0650368407369,-1.22772681713,68.7439651489,,,,,-9.2,-4.18,2.48,61.7755460739
-0.0177974514663,0.067474797368,-1.235019207,68.7463531494,,,,,-7.97,-0.28,-0.07,61.7759401798
-0.0302447620779,0.0666117370129,-1.23048877716,68.7487490177,,,,,-2.97,2.65,-0.4,61.7763051987
-0.0306110475212,0.0611464753747,-1.22197318077,68.7511479855,,,,,-1.42,2.19,0.08,61.7766690254
-0.030325056985,0.0408499315381,-1.21088588238,68.7871260643,,,,,-1.86,0.78,0.57,61.7770340443
-0.0220572240651,0.0543384104967,-1.22707211971,68.7895281315,,,,,-6.4,-1.36,0.18,61.7779681683
-0.0105449594557,0.0636653006077,-1.23625051975,68.7919270992,,,,,-8.22,3.52,-2.15,61.7783601284
-0.0149755850434,0.0593748688698,-1.22340679169,68.794367075,,,,,-6.94,5.6,-2.18,61.7787380219
-0.00531242974102,0.0660908296704,-1.21580028534,68.7967641354,,,,,-5.71,6.59,-1.73,61.7791171074
8.28915508464e-05,0.0587031766772,-1.21505427361,68.835996151,,,,,-6.93,5.17,-0.23,61.7794821262
-0.0155504457653,0.0321856066585,-1.20532155037,68.8383979797,,,,,-8.99,3.82,0.21,61.8139870167
-0.028395306319,0.0393462404609,-1.19361281395,68.8407931328,,,,,-10.64,3.55,-0.66,61.8143811226
-0.023907199502,0.0655240863562,-1.19881498814,68.843362093,,,,,-8.57,6.22,-1.43,61.8147461414
-0.00664498284459,0.0518471598625,-1.19780099392,68.8457682133,,,,,-7.89,6.57,-1.48,61.8151111603
-0.0115388818085,0.0372850075364,-1.19138538837,68.8857800961,,,,,-8.16,5.91,-1.4,61.815474987
-0.0178028009832,0.056253798306,-1.17318832874,68.8881762028,,,,,-10.24,3.15,-1.8,61.8163850307
-0.0211071334779,0.0591079667211,-1.17020440102,68.8905770779,,,,,-9.14,2.48,-3.92,61.816781044
-0.0250038094819,0.0481783747673,-1.16350269318,68.893020153,,,,,-8.54,3.63,-4.19,61.8171451092
-0.0229824148118,0.0477895885706,-1.16695451736,68.8954250813,,,,,-8.53,4.55,-3.91,61.817510128
-0.0211470983922,0.0606334805489,-1.1811388731,68.9336230755,,,,,-10.19,4.18,-2.34,61.8178720474
-0.0265986435115,0.0719786435366,-1.17437052727,68.9360220432,,,,,-10.93,3.25,-1.89,61.8187830448
-0.0269460976124,0.0418358668685,-1.16780626774,68.9384200573,,,,,-8.47,1.67,-3.71,61.8191771507
-0.0121559724212,0.0349148884416,-1.17838001251,68.9408180714,,,,,-7.57,2.29,-4.55,61.8195409775
-0.0134155414999,0.0533059462905,-1.1763176918,68.9769091606,,,,,-8.78,4.08,-4.78,61.8199071884
-0.0169680006802,0.0553942099214,-1.16989398003,68.9793050289,,,,,-10.15,4.25,-4.19,61.8202700615
-0.0147489272058,0.0408006235957,-1.16812729836,68.981700182,,,,,-10.09,2.94,-3.72,61.8211810589
-0.0138200260699,0.0307534877211,-1.14778518677,68.9841341972,,,,,-6.15,1.29,-5.73,61.8215751648
-0.0139943696558,0.0538871586323,-1.1234767437,68.9865300655,,,,,-4.7,1.97,-8.2,61.8219401836
-0.0208332315087,0.0663690939546,-1.11615097523,69.0261151791,,,,,-6.53,3.27,-8.64,61.8223061562
-0.0237373672426,0.0501032695174,-1.13988184929,69.0285110474,,,,,-12.13,5.28,-7.23,61.8226699829
-0.0212235338986,0.0528388097882,-1.14364135265,69.0309112072,,,,,-12.91,5.35,-5.94,61.8236210346
-0.0108317807317,0.0611938908696,-1.14263212681,69.0333440304,,,,,-5.76,2.11,-3.37,61.8240160942
-0.00805851258337,0.0623774379492,-1.14074897766,69.0357401371,,,,,-4.05,1.29,-2.95,61.8616700172
-0.0107458569109,0.0450943261385,-1.13672673702,69.0754401684,,,,,-6.63,2.29,-2.0,61.8620371819
-0.0165244229138,0.0332323461771,-1.12457299232,69.0778400898,,,,,-9.89,3.51,-1.19,61.8624022007
-0.011547613889,0.0442064777017,-1.1179176569,69.0802381039,,,,,-12.33,4.58,0.97,61.8633470535
0.00584636162966,0.0620382502675,-1.10383892059,69.0826370716,,,,,-6.32,1.92,2.61,61.8637421131
-0.00894496962428,0.0565893948078,-1.09457874298,69.1199231148,,,,,-0.42,-1.91,2.58,61.864107132
-0.0113597773015,0.0479656606913,-1.10404241085,69.1223270893,,,,,-0.32,-2.73,1.98,61.8644711971
-0.0158571638167,0.0477598756552,-1.11179161072,69.1247580051,,,,,-5.52,-1.66,0.4,61.8648350239
-0.0046650506556,0.0591582208872,-1.1043586731,69.1271572113,,,,,-8.0,-0.59,-0.16,61.8657450676
-0.00636935792863,0.0472079068422,-1.09908127785,69.1295530796,,,,,-2.43,-0.64,-0.55,61.8661379814
-0.00770784541965,0.0376876369119,-1.09892630577,69.1666440964,,,,,1.7,-1.9,-0.77,61.8665020466
-0.00132795784157,0.0438508167863,-1.10183930397,69.1690380573,,,,,4.91,-3.43,-1.56,61.8668661118
-0.0129154101014,0.0622821003199,-1.08505249023,69.1714370251,,,,,2.77,-2.94,-1.95,61.8672311306
-0.0146908946335,0.0685876607895,-1.04971289635,69.1741890907,,,,,-3.99,-0.06,-1.72,61.8681440353
-0.0182484872639,0.0407767370343,-1.03649556637,69.1765880585,,,,,-4.26,1.87,0.38,61.8685381413
-0.00624673813581,0.0231239143759,-1.03684365749,69.215970993,,,,,2.45,0.79,2.15,61.8689031601
0.00388897955418,0.0357059687376,-1.04420948029,69.2183680534,,,,,4.91,0.01,2.2,61.8692660332
-0.000302348169498,0.0459038987756,-1.03527379036,69.2207632065,,,,,2.59,0.36,0.71,61.869631052
-0.00798444077373,0.0450515672565,-1.02701115608,69.2231981754,,,,,-1.29,1.57,-0.4,61.8705410957
-0.0157587341964,0.0450171902776,-1.02539622784,69.2255930901,,,,,-8.84,4.04,-1.26,61.8709352016
-0.0137149393559,0.0411987304688,-1.02748405933,69.2654321194,,,,,-7.05,3.66,-0.99,61.8712990284
-0.022044647485,0.0486194565892,-1.02521836758,69.2678310871,,,,,-1.36,2.64,-1.22,61.8716630936
-0.0336495414376,0.0589605346322,-1.02178633213,69.2702310085,,,,,-0.18,2.88,-1.94,61.8720281124
-0.0200081057847,0.0523453429341,-1.03574287891,69.2726261616,,,,,-6.03,5.6,-4.7,61.9108300209
-0.00771019048989,0.0321296155453,-1.03861665726,69.3098390102,,,,,-8.88,4.81,-3.26,61.9112410545
-0.0074800029397,0.0306974817067,-1.02304983139,69.3122370243,,,,,-6.4,4.32,-2.26,61.9116051197
-0.00456116348505,0.0441884845495,-1.0014013052,69.3146700859,,,,,-1.12,4.91,-0.89,61.9119691849
-0.00696753337979,0.0492064803839,-0.978387355804,69.3170661926,,,,,0.01,5.73,-0.81,61.912332058
-0.00488400831819,0.0405175462365,-0.98950779438,69.3194630146,,,,,-0.57,6.32,-1.11,61.913285017
-0.000397886964492,0.0247412901372,-0.997278094292,69.3572599888,,,,,-7.86,4.84,-1.94,61.9136791229
-0.00928215868771,0.0234010946006,-0.986986160278,69.3596551418,,,,,-6.75,3.47,-1.63,61.9140431881
-0.0143274255097,0.0454641655087,-0.97853410244,69.3620481491,,,,,-3.95,3.59,-1.46,61.9144082069
-0.00852748937905,0.054741255939,-0.985439538956,69.3644831181,,,,,-0.8,4.26,-1.53,61.9147729874
-0.0143481679261,0.0410587340593,-1.00281918049,69.3668811321,,,,,1.98,5.69,-2.52,61.9156839848
-0.0125814415514,0.0404744297266,-1.00314688683,69.4059700966,,,,,-7.07,4.55,-3.66,61.9160790443
-0.000855935621075,0.0435321107507,-0.995739340782,69.4083662033,,,,,-9.32,4.0,-3.28,61.9164440632
-0.00995424762368,0.0480517521501,-0.970366716385,69.4107651711,,,,,-9.31,3.88,-2.7,61.9168081284
-0.0166136585176,0.0485133379698,-0.973581373692,69.4132010937,,,,,-3.25,5.47,-2.48,61.9171710014
-0.0147515423596,0.0479723140597,-0.991041302681,69.4156010151,,,,,0.33,6.76,-3.34,61.9180831909
-0.0221813879907,0.0562965199351,-0.987059354782,69.4551651478,,,,,-2.55,8.38,-7.21,61.9184751511
-0.0185230895877,0.0551101565361,-0.998535275459,69.4575572014,,,,,-6.93,8.04,-7.32,61.9188411236
-0.0179226212204,0.0333362072706,-0.995956897736,69.459954977,,,,,-10.93,7.08,-5.1,61.9192061424
-0.0238681919873,0.0296147372574,-0.987264156342,69.4623529911,,,,,-8.54,6.96,-3.89,61.9195702076
-0.0198292210698,0.0451460406184,-0.978290081024,69.498442173,,,,,0.54,7.68,-3.77,61.9204790592
-0.00916893035173,0.0525470674038,-0.970441639423,69.5008339882,,,,,2.7,8.01,-6.21,61.9208731651
-0.0132165253162,0.0448190942407,-0.973879814148,69.5032660961,,,,,-5.42,7.41,-6.87,61.9212360382
-0.0109634511173,0.0301486793905,-0.965357840061,69.5056622028,,,,,-9.23,7.05,-5.72,61.9216001034
-0.00459073670208,0.0312399361283,-0.936046361923,69.5080580711,,,,,-7.83,6.8,-2.78,61.9219651222
-0.0109500698745,0.0297063644975,-0.940626442432,69.5463840961,,,,,-3.12,6.96,-2.21,61.9597921371
-0.0112134329975,0.0391936078668,-0.941997766495,69.5487790108,,,,,3.34,6.67,-5.22,61.9601860046
-0.0067689307034,0.0463042482734,-0.951516151428,69.5511741638,,,,,-0.56,6.11,-6.25,61.9605510235
-0.00681017711759,0.0443755760789,-0.959193885326,69.553604126,,,,,-9.24,5.05,-5.82,61.9609150887
-0.00956084951758,0.0469264909625,-0.953979194164,69.5559999943,,,,,-9.64,4.79,-4.63,61.9612801075
-0.00964833796024,0.0470316410065,-0.938075661659,69.5957980156,,,,,-1.22,5.06,-2.39,61.9621920586
-0.019058637321,0.050039447844,-0.917015612125,69.5982000828,,,,,6.47,5.72,-2.06,61.9625852108
-0.0215843580663,0.0493737235665,-0.914112091064,69.6005949974,,,,,1.63,5.66,-2.85,61.9629981518
-0.0257243849337,0.0479681864381,-0.913532555103,69.6030461788,,,,,-3.33,5.64,-2.94,61.9633641243
-0.0307514835149,0.0350068807602,-0.922800600529,69.6054480076,,,,,-7.77,6.55,-2.07,61.9637300968
-0.0187358297408,0.0369390696287,-0.900431752205,69.645357132,,,,,-5.56,7.33,-1.29,61.9646430016
-0.011577244848,0.0506572499871,-0.870230734348,69.6477560997,,,,,5.17,9.04,-0.11,61.9650371075
-0.00617376342416,0.0464697703719,-0.853034257889,69.6501531601,,,,,4.59,8.58,-0.45,61.9654021263
-0.0107386633754,0.03933557868,-0.844024896622,69.6525461674,,,,,-2.67,7.07,-1.91,61.9657690525
-0.00743769854307,0.0426846817136,-0.829312682152,69.6883041859,,,,,-5.99,6.77,-2.66,61.9661340714
-0.00437585823238,0.0315397307277,-0.831457674503,69.6907072067,,,,,-5.4,7.33,-2.98,61.9670441151
-0.0150768496096,0.0232586059719,-0.833873271942,69.6931390762,,,,,2.81,8.23,-1.59,61.9674360752
-0.0136397741735,0.0266542155296,-0.843577921391,69.6955440044,,,,,6.07,7.21,0.03,61.9678001404
-0.0105281881988,0.0388989448547,-0.837601721287,69.6979300976,,,,,3.78,6.19,0.29,61.9681642056
-0.00751827843487,0.0472424030304,-0.831493854523,69.736189127,,,,,-3.13,5.47,-0.73,61.968528986
0.00236039236188,0.0525980964303,-0.832242965698,69.7385890484,,,,,-4.73,5.8,-1.31,61.9694390297
0.00586015544832,0.0505282878876,-0.818628907204,69.7409870625,,,,,2.82,5.63,0.25,61.9698331356
-0.00621569901705,0.0447517484426,-0.812532067299,69.7434229851,,,,,5.02,4.65,1.41,61.9701981544
-0.0141317807138,0.030299814418,-0.815279662609,69.7458209991,,,,,2.12,2.56,2.21,61.9705619812
-0.0122156888247,0.0138094816357,-0.812373280525,69.7857260704,,,,,-1.55,2.28,1.29,61.9709250927
-0.00888464972377,0.0155666340142,-0.811013162136,69.7881259918,,,,,-5.91,3.17,-1.42,62.0057270527
-0.00404867716134,0.0264125820249,-0.823891043663,69.7905290127,,,,,-1.1,3.39,-2.04,62.0061221123
-0.00864855200052,0.0237479005009,-0.839442491531,69.7929639816,,,,,3.75,2.5,-0.6,62.0064861774
-0.0104684755206,0.0163137633353,-0.833665966988,69.7953650951,,,,,2.69,2.15,-0.01,62.0068500042
-0.0122261978686,0.0292512718588,-0.843149662018,69.8338429928,,,,,-0.29,2.17,0.05,62.0072131157
-0.0181193836033,0.0374575406313,-0.872028231621,69.8362360001,,,,,-7.12,3.01,-0.85,62.00812006
-0.01387501508,0.0345978289843,-0.890856206417,69.8386352062,,,,,-4.68,2.35,0.5,62.0085132122
-0.0107151530683,0.0324224159122,-0.897565364838,69.8410260677,,,,,-2.04,1.8,1.82,62.0088760853
-0.0130786187947,0.04595413059,-0.898770272732,69.8782110214,,,,,-0.91,1.45,3.02,62.0092401505
-0.0174236223102,0.0434577390552,-0.903048992157,69.8806111813,,,,,-4.1,1.31,4.02,62.0096039772
-0.0169965066016,0.0465539172292,-0.906457006931,69.8831520081,,,,,-7.07,1.36,3.78,62.0105140209
-0.0109440535307,0.0615449398756,-0.906799077988,69.8855512142,,,,,-9.72,0.99,2.93,62.0109071732
-0.012185011059,0.0519124642015,-0.913962244987,69.8879439831,,,,,-3.94,1.34,3.36,62.0112709999
-0.0192968212068,0.0422567874193,-0.915523290634,69.9261040688,,,,,-1.63,1.98,3.32,62.0116341114
-0.0205355659127,0.0369926840067,-0.889941394329,69.9285020828,,,,,-0.64,2.69,2.84,62.0119950771
-0.0203705653548,0.0393370911479,-0.891825556755,69.9308991432,,,,,-2.89,3.15,0.79,62.0129430294
-0.0198748596013,0.0493945777416,-0.898149430752,69.9333322048,,,,,-6.33,2.66,-2.26,62.0133290291
-0.0107457563281,0.0437632724643,-0.90507131815,69.9357311726,,,,,-4.19,3.2,-2.42,62.0136961937
-0.012528128922,0.04404515028,-0.926003575325,69.9756422043,,,,,-0.87,4.08,-2.23,62.0140941143
-0.0123033821583,0.0444627329707,-0.945115029812,69.9780540466,,,,,4.7,5.37,-2.07,62.014467001
-0.0206436738372,0.0402270108461,-0.950590610504,69.9804461002,,,,,4.98,4.99,-2.46,62.0153791904
-0.0268009342253,0.0418418720365,-0.9330098629,69.9828801155,,,,,-1.99,1.34,-5.18,62.0157721043
-0.016395855695,0.0352221205831,-0.92678129673,69.9852850437,,,,,-2.97,0.91,-5.73,62.0516810417
-0.0174924097955,0.0432405695319,-0.93369448185,70.0236861706,,,,,1.08,2.25,-4.73,62.0520470142
-0.0178201533854,0.0649071037769,-0.940111637115,70.0260820389,,,,,4.4,3.23,-3.63,62.0524091721
-0.00321567431092,0.0658278763294,-0.931561112404,70.0284790993,,,,,6.6,3.01,-1.74,62.0533599854
-0.0169469974935,0.0537599772215,-0.933617174625,70.0308790207,,,,,0.94,-0.05,-1.69,62.0537550449
-0.0303501505405,0.0472986772656,-0.927310943604,70.0674140453,,,,,-4.35,-1.41,-2.68,62.0541210175
-0.020757958293,0.0388361215591,-0.913488507271,70.0698151588,,,,,-4.26,-0.77,-2.49,62.0544860363
-0.0160937272012,0.0342086106539,-0.924832463264,70.0722100735,,,,,0.94,1.4,-0.57,62.0548491478
-0.0144035890698,0.0429440364242,-0.922670662403,70.0746431351,,,,,3.67,1.76,0.45,62.0557620525
-0.0168289244175,0.046479344368,-0.923579275608,70.0770380497,,,,,1.61,-0.95,0.69,62.0561571121
-0.0199904963374,0.0483445227146,-0.925829291344,70.1172320843,,,,,-1.17,-1.48,-0.27,62.056522131
-0.0273313522339,0.0508474335074,-0.917766273022,70.119628191,,,,,-3.83,-0.29,-1.69,62.0568861961
-0.0359736382961,0.0463331192732,-0.918162941933,70.122025013,,,,,-2.31,0.88,-1.76,62.0572490692
-0.0291662402451,0.0443953052163,-0.917631626129,70.1244580746,,,,,3.65,2.1,-1.56,62.0581591129
-0.016083214432,0.0491769611835,-0.927274048328,70.126855135,,,,,4.82,0.93,-1.97,62.0585510731
-0.0195286162198,0.0477048456669,-0.930528342724,70.1655511856,,,,,-1.19,-0.01,-2.54,62.0589151382
-0.0155015774071,0.0538865104318,-0.927578926086,70.167951107,,,,,-4.63,0.28,-2.32,62.0592801571
-0.01718563959,0.0594496876001,-0.923762142658,70.1703472137,,,,,-6.21,1.32,-0.42,62.0596451759
-0.022594679147,0.0524946898222,-0.921441018581,70.1727449894,,,,,-3.89,1.12,0.65,62.0605812073
-0.0214209742844,0.0474350452423,-0.935568749905,70.1751770973,,,,,0.43,-3.9,1.68,62.0609750748
-0.0209793634713,0.0416063442826,-0.947360157967,70.2135941982,,,,,-1.65,-5.29,1.47,62.0613391399
-0.0279254950583,0.0364887341857,-0.941652715206,70.2159900665,,,,,-6.48,-4.68,1.22,62.0617060661
-0.0187811031938,0.0417111739516,-0.937456309795,70.2183871269,,,,,-6.45,-3.12,1.46,62.062071085
-0.0116051025689,0.0521515235305,-0.918664157391,70.2207841873,,,,,0.03,-1.02,2.31,62.100684166
-0.0156417228281,0.0572767406702,-0.925577163696,70.2568659782,,,,,5.68,-3.12,2.23,62.1010811329
-0.0155935324728,0.0518869608641,-0.945793688297,70.259262085,,,,,2.29,-5.66,1.2,62.1014461517
-0.0195495672524,0.0512868985534,-0.946684002876,70.2616760731,,,,,-0.55,-5.11,0.54,62.1018111706
-0.0230494178832,0.0519693940878,-0.953753352165,70.2641181946,,,,,-1.31,-0.71,-0.02,62.1021761894
-0.0126222856343,0.036488994956,-0.952974736691,70.2665150166,,,,,1.53,1.43,0.48,62.1031320095
-0.011823322624,0.041789457202,-0.963850498199,70.306497097,,,,,8.79,-0.42,3.26,62.1035270691
-0.00801553018391,0.0397718697786,-0.965746223927,70.3088960648,,,,,6.66,-2.48,3.73,62.1038911343
-0.0180893652141,0.0233300756663,-0.951797246933,70.311300993,,,,,-0.11,-3.63,2.7,62.1042530537
-0.0276366733015,0.0360350608826,-0.95507478714,70.3137390614,,,,,-1.47,-2.35,1.43,62.1046171188
-0.00969555228949,0.0349714308977,-0.939782142639,70.3161389828,,,,,1.85,0.86,-0.49,62.1055290699
0.000704983365722,0.0456178337336,-0.926327884197,70.3565139771,,,,,6.93,0.51,-0.17,62.10592103
-0.00146015721839,0.0542361214757,-0.935197770596,70.3589131832,,,,,3.55,-3.04,1.38,62.1062870026
-0.00944010540843,0.0406825914979,-0.92827552557,70.3613100052,,,,,-0.19,-4.4,1.72,62.1066510677
-0.0155165717006,0.0399219244719,-0.943468928337,70.3637430668,,,,,-3.12,-4.97,1.42,62.1070151329
-0.0145366974175,0.0423674657941,-0.950957000256,70.3998990059,,,,,-2.94,-4.07,-0.12,62.1079230309
-0.0185622349381,0.0361772030592,-0.955104768276,70.4023001194,,,,,5.36,-2.31,1.17,62.1083161831
-0.0205166004598,0.0416559129953,-0.958856105804,70.4047381878,,,,,5.08,-2.61,3.03,62.1086812019
-0.0152141153812,0.0411482453346,-0.961954832077,70.4071381092,,,,,-0.51,-3.36,6.4,62.1090450287
-0.0177690126002,0.0415675416589,-0.98191857338,70.4095380306,,,,,-2.85,-3.44,6.86,62.1094100475
-0.0186340846121,0.054059818387,-0.982091426849,70.4463632107,,,,,-3.57,-3.25,6.38,62.1103200912
-0.0200979523361,0.0567478984594,-0.949093818665,70.4487621784,,,,,1.51,-1.21,3.25,62.1107130051
-0.031941793859,0.033687017858,-0.929353773594,70.4511520863,,,,,0.51,-0.73,3.47,62.1110770702
-0.0210320726037,0.0392422527075,-0.941043794155,70.4535880089,,,,,-2.28,-0.84,3.93,62.1114420891
-0.0118776932359,0.0524461343884,-0.96056330204,70.4559860229,,,,,-5.24,-1.18,4.05,62.1118061543
-0.0118136554956,0.0647789686918,-0.96360296011,70.4959251881,,,,,-7.72,-2.2,2.56,62.1486310959
0.00575458444655,0.0523216724396,-0.969640612602,70.498319149,,,,,-2.85,-1.17,-0.04,62.1490271091
0.00378261134028,0.0248518828303,-0.975328326225,70.5007171631,,,,,-2.12,-0.61,0.22,62.149392128
-0.00495801493526,0.036849886179,-0.975565075874,70.503152132,,,,,-2.34,-0.27,0.8,62.1497590542
-0.00628952123225,0.0505493953824,-0.981127738953,70.5055470467,,,,,-4.22,-0.82,1.27,62.1501221657
-0.0264120288193,0.0395140424371,-0.987585067749,70.545137167,,,,,-5.08,-2.53,0.02,62.1510341167
-0.0395278707147,0.0479438602924,-0.982560634613,70.5475330353,,,,,-4.34,-2.35,-0.85,62.1514279842
-0.0473587736487,0.0570485144854,-0.983082413673,70.5499269962,,,,,-4.08,-1.48,-0.46,62.1517920494
-0.0609235912561,0.0372157767415,-0.99354493618,70.5523190498,,,,,-3.4,0.0,0.93,62.1521561146
-0.0594405457377,0.0444661900401,-1.00695419312,70.5897669792,,,,,-3.02,0.0,0.98,62.1525201797
-0.0561877116561,0.0626166239381,-1.00640499592,70.5921611786,,,,,-5.24,-2.61,-2.81,62.1534659863
-0.0604622587562,0.058620557189,-0.997534036636,70.594588995,,,,,-8.64,-1.92,-4.74,62.1538591385
-0.0583698600531,0.0481478720903,-0.998129725456,70.596984148,,,,,-9.85,-0.97,-4.26,62.1542232037
-0.0475165247917,0.0430644899607,-0.992597341537,70.5993840694,,,,,-9.75,-0.35,-2.96,62.1545879841
-0.0443937405944,0.0517618283629,-0.98154258728,70.6361560822,,,,,-5.73,-1.55,0.11,62.1549530029
-0.0283124782145,0.0487942621112,-0.973670423031,70.6385550499,,,,,-3.79,-3.35,0.95,62.1558611393
-0.0141672678292,0.0445467978716,-0.964447140694,70.6409490108,,,,,-4.95,-6.13,0.43,62.1562540531
-0.0181483216584,0.0517487674952,-0.971011221409,70.6433811188,,,,,-6.99,-4.91,0.38,62.156619072
-0.0156407505274,0.0545238479972,-0.982241034508,70.6457800865,,,,,-8.09,-2.16,2.07,62.1569831371
-0.00874574109912,0.045931443572,-0.981375217438,70.685708046,,,,,-6.01,-2.16,3.5,62.157348156
-0.00900659710169,0.0403067916632,-0.96916872263,70.6881051064,,,,,0.31,-5.65,5.11,62.1582610607
-0.00718265213072,0.0408688932657,-0.93560218811,70.6904962063,,,,,2.97,-9.11,3.85,62.158654213
-0.0084883235395,0.042918689549,-0.933618187904,70.6929261684,,,,,-0.82,-6.97,1.38,62.1590189934
-0.0189666263759,0.0558355227113,-0.950389444828,70.6953270435,,,,,-3.45,-4.61,0.62,62.1593830585
-0.00937017984688,0.0466872379184,-0.981097459793,70.7351520061,,,,,-4.57,-2.05,0.77,62.1933400631
0.00995150581002,0.0340551137924,-0.990584492683,70.737552166,,,,,-2.38,-3.03,1.14,62.1942660809
0.00946509093046,0.0365120768547,-0.976032197475,70.7399411201,,,,,4.65,-9.57,0.96,62.1946611404
-0.00115045520943,0.032949320972,-0.976251125336,70.7423369884,,,,,3.58,-9.78,0.74,62.1950261593
-0.00568699091673,0.0321620851755,-0.983741283417,70.7784700394,,,,,-3.3,-6.47,1.23,62.195389986
-0.0051186773926,0.0412296131253,-0.997295022011,70.7808690071,,,,,-6.35,-4.52,2.16,62.1957550049
-0.00245319679379,0.037903085351,-1.01254630089,70.7833051682,,,,,-5.17,-3.74,4.01,62.1966650486
-0.00265506096184,0.0413979813457,-1.01337015629,70.7857141495,,,,,2.05,-6.82,3.62,62.1970582008
-0.00639451667666,0.0521706193686,-1.01307404041,70.7881090641,,,,,3.23,-8.0,1.41,62.1974229813
-0.0113433301449,0.0553188621998,-1.01935172081,70.8260011673,,,,,0.18,-6.93,0.36,62.1977880001
-0.00356722809374,0.0510973334312,-1.02959060669,70.8283910751,,,,,-7.61,-3.83,0.17,62.1981511116
0.00146063056309,0.0358046889305,-1.03043282032,70.8307931423,,,,,-8.78,-3.1,0.9,62.1990652084
-0.00117400090676,0.0378180891275,-1.01700925827,70.8332262039,,,,,0.1,-5.24,1.88,62.1994581223
0.00469380617142,0.0437730997801,-1.00605046749,70.8356220722,,,,,2.79,-5.68,1.2,62.1998209953
-0.000617466750555,0.0288606043905,-1.0085862875,70.8756999969,,,,,2.07,-4.5,-0.34,62.2001860142
-0.00343197211623,0.03818859905,-1.01890909672,70.8780970573,,,,,-0.97,-3.6,-0.31,62.2005500793
0.000857010600157,0.0463086515665,-1.03108334541,70.8804931641,,,,,-6.59,-3.03,2.25,62.2014610767
-0.00485471449792,0.0391779989004,-1.0230050087,70.8829221725,,,,,-6.36,-4.13,5.76,62.2018530369
-0.00997883826494,0.0292283762246,-1.02778148651,70.8853240013,,,,,-2.12,-4.12,6.42,62.2022180557
-0.00960401259363,0.0316440090537,-1.03918421268,70.9285759926,,,,,-0.42,-3.42,5.34,62.2025821209
-0.00709035620093,0.0446180701256,-1.03728532791,70.9316689968,,,,,-0.2,-2.63,3.65,62.202986002
0.00506386347115,0.054368339479,-1.03934550285,70.9345641136,,,,,-4.88,-1.69,0.63,62.2039010525
3.58166142158e-39,1.65303893084e-38,1.4831897631e-16,70.9394321442,,,,,-11.01,-0.99,0.8,62.2414531708
0.0239102747291,-0.684177279472,0.1405505687,70.9770801067,,,,,-9.06,-0.23,1.16,62.2418241501
0.0343380980194,0.0486319214106,-1.03117215633,70.9836280346,,,,,-1.29,1.84,0.42,62.2421910763
0.0112999379635,0.0362900011241,0.241865664721,70.9867081642,,,,,1.48,2.47,-0.71,62.2425551414
0.0151301659644,0.0558682978153,-1.02962350845,70.9890811443,,,,,1.86,2.6,-1.91,62.2435050011
0.0279061868787,0.101621717215,0.101692162454,70.9917221069,,,,,-5.07,1.76,-2.33,62.2439000607
0.0210510455072,0.0696739330888,-1.04161977768,71.0269050598,,,,,-3.27,1.75,-0.84,62.2442641258
0.0186475589871,0.0692785531282,-0.00265935435891,71.029156208,,,,,0.1,1.99,-0.35,62.2446269989
0.00813679583371,0.0678268000484,-1.03502476215,71.0315580368,,,,,3.54,2.17,-0.3,62.2449910641
0.0134514793754,0.0522219091654,-1.05028426647,71.0341551304,,,,,5.06,1.8,-0.99,62.2459061146
0.0221142321825,0.0344985723495,-1.06130480766,71.0365331173,,,,,-1.99,-0.82,-0.53,62.2462990284
0.0216921456158,-0.683570146561,0.142010807991,71.0598161221,,,,,-1.72,-1.88,-0.14,62.2466650009
0.0186362210661,0.0701177716255,-1.06334376335,71.0621850491,,,,,0.38,-2.57,0.11,62.2470290661
0.0216921456158,0.0458649992943,-1.06906354427,71.0635340214,,,,,6.22,-2.2,0.35,62.2473940849
0.0186362210661,0.0701177716255,-1.06334376335,71.0658531189,,,,,7.37,-1.43,0.62,62.2483050823
0.0214537475258,0.0924092158675,-1.04387509823,71.0681660175,,,,,1.17,-0.24,3.46,62.2486979961
0.0230320114642,0.0870190560818,-1.04103171825,71.1057360172,,,,,-0.28,-1.96,5.22,62.249063015
0.0223906133324,0.0576364994049,-1.07645571232,71.1081101894,,,,,1.11,-2.75,5.37,62.2494261265
0.0229108817875,0.0389182493091,-1.09865128994,71.1105251312,,,,,2.88,-2.92,5.08,62.2497889996
0.0209156237543,-0.0472006835043,-0.127790659666,71.1129381657,,,,,3.79,-1.17,3.92,62.2506971359
0.0253456924111,0.0417720302939,-1.05970847607,71.1153011322,,,,,-2.25,2.01,3.17,62.2510900497
0.0282715018839,0.0479824319482,-1.06348872185,71.1568961143,,,,,-2.98,1.48,3.15,62.2514541149
0.0252567958087,0.0467046499252,-1.06711792946,71.1593010426,,,,,-2.03,0.26,2.94,62.251816988
0.0229909736663,0.0415213108063,-1.06134641171,71.1616790295,,,,,1.8,-1.52,1.84,62.2521820068
0.0269466061145,0.0493084490299,-1.07184135914,71.1641011238,,,,,2.68,-1.28,1.17,62.2904410362
0.0252114869654,0.0549234747887,-1.07333230972,71.2014181614,,,,,0.12,2.48,-0.34,62.2908360958
0.0258155800402,0.0570426955819,-1.0687983036,71.2038362026,,,,,-0.36,3.31,-0.42,62.2912011147
0.0190469194204,0.0401741936803,-1.07568776608,71.2062530518,,,,,2.31,2.38,0.03,62.2915651798
0.0165604911745,0.048421189189,-1.08221101761,71.2086281776,,,,,4.02,1.44,0.53,62.2919280529
0.0225092768669,0.0705440565944,-1.08189320564,71.2110011578,,,,,3.29,0.95,1.77,62.2928700447
0.020732421428,0.0626423507929,-1.07727098465,71.2477869987,,,,,-1.24,2.5,2.6,62.2932651043
0.0243442803621,0.0433297231793,-1.08131754398,71.2501649857,,,,,-2.67,4.13,2.78,62.2936301231
0.0282319393009,0.037663474679,-1.09296190739,71.2525479794,,,,,-1.03,4.08,2.83,62.2940170765
0.0309889130294,0.0567993745208,-1.09596776962,71.254994154,,,,,2.69,3.49,2.77,62.2943880558
0.0288498699665,0.0497761368752,-1.08272588253,71.2573671341,,,,,2.3,3.71,2.54,62.2952990532
0.0259046070278,0.0293907057494,-1.08868598938,71.2973849773,,,,,-6.11,5.26,1.08,62.2956931591
0.035375110805,0.0327349156141,-1.08138799667,71.2997601032,,,,,-7.56,5.46,0.52,62.2960569859
0.0413463041186,0.0511016249657,-1.06619048119,71.3021681309,,,,,-4.36,4.91,0.01,62.296421051
0.0349572449923,0.0525862723589,-1.06048476696,71.3045802116,,,,,-1.07,4.68,0.12,62.2967841625
0.0327935665846,0.0485066995025,-1.05493628979,71.3069560528,,,,,1.48,5.1,0.62,62.2976930141
0.0417968034744,0.0516391992569,-1.05692255497,71.3468241692,,,,,-2.91,5.43,0.78,62.2980871201
0.0497420653701,0.0545146763325,-1.05093216896,71.3491990566,,,,,-6.03,5.16,0.04,62.2984490395
0.0521514266729,0.0425350219011,-1.05435049534,71.3516001701,,,,,-4.92,4.91,-0.31,62.2988140583
0.0563974007964,0.0497779175639,-1.05206823349,71.3540070057,,,,,1.37,5.18,-0.24,62.2991781235
0.0574278086424,0.0683490633965,-1.04920232296,71.3899919987,,,,,3.6,5.73,0.13,62.3000881672
0.0535724461079,0.0617482513189,-1.05325448513,71.3923630714,,,,,-1.02,5.29,0.3,62.300481081
0.0539843738079,0.0573510825634,-1.06211209297,71.3947660923,,,,,-3.37,4.25,-0.65,62.3008460999
0.0530309230089,0.0542618781328,-1.06109106541,71.3971710205,,,,,-3.6,2.78,-3.24,62.3012120724
0.0464295744896,0.0508251711726,-1.06987667084,71.3995730877,,,,,-1.36,2.93,-3.92,62.3015780449
0.0432993881404,0.0510704442859,-1.07369613647,71.4380421638,,,,,2.61,4.88,-3.1,62.3385031223
0.0443660318851,0.0413655713201,-1.07015371323,71.4404160976,,,,,-0.54,5.43,-0.54,62.3388981819
0.0371119305491,0.0411355942488,-1.0728187561,71.4424510002,,,,,-7.03,2.58,0.78,62.3392632008
0.038843177259,0.0452306047082,-1.07904434204,71.4448671341,,,,,-8.76,1.0,0.66,62.3396251202
0.0488794893026,0.0370011478662,-1.07686638832,71.447273016,,,,,-6.75,0.13,0.7,62.3399910927
0.0554871484637,0.0308917630464,-1.06872999668,71.4880900383,,,,,-4.03,1.0,1.31,62.3409020901
0.0594664812088,0.0234761592001,-1.07063531876,71.4904620647,,,,,-2.28,3.33,4.07,62.3412940502
0.0617835968733,0.0193055588752,-1.07452225685,71.4929401875,,,,,-4.74,2.49,4.5,62.3416621685
0.0651696547866,0.026204103604,-1.05996787548,71.4953591824,,,,,-8.21,-0.28,3.7,62.3420259953
0.0652178376913,0.0345043316483,-1.05870199203,71.4977331161,,,,,-7.19,-0.93,2.98,62.3423900604
0.0567673668265,0.0273823011667,-1.06439423561,71.5367050171,,,,,-0.03,0.35,1.98,62.3433392048
0.061015330255,0.0343827679753,-1.07113969326,71.5390770435,,,,,4.99,2.75,1.28,62.343734026
0.0572065711021,0.0627533867955,-1.06885898113,71.5414671898,,,,,1.18,3.29,0.38,62.3440990448
0.0583159551024,0.079311594367,-1.05673229694,71.5438921452,,,,,-1.65,2.85,-0.3,62.3444640636
0.0702240616083,0.0638700276613,-1.05925095081,71.5801420212,,,,,-3.07,2.41,-0.95,62.3448290825
0.0692783296108,0.0494870245457,-1.0528678894,71.5825572014,,,,,0.83,2.56,-1.15,62.3457369804
0.0625311359763,0.0457515120506,-1.05947005749,71.5849690437,,,,,7.49,2.95,0.28,62.346129179
0.0597638487816,0.0385057032108,-1.05099081993,71.5873401165,,,,,5.53,2.5,0.43,62.3464930058
0.0655389949679,0.050213560462,-1.04168891907,71.589744091,,,,,0.41,0.89,-0.86,62.3468561172
0.0711626783013,0.0514150634408,-1.05094218254,71.6280682087,,,,,-0.01,0.12,-1.93,62.3472201824
0.0729719027877,0.0498374551535,-1.05515360832,71.6304700375,,,,,1.71,-0.38,-2.82,62.348129034
0.0807738825679,0.053144313395,-1.05279076099,71.6328790188,,,,,8.26,-1.07,-1.96,62.34852314
0.071666046977,0.0461704432964,-1.04297566414,71.635256052,,,,,3.88,-2.17,0.38,62.3488872051
0.0571361556649,0.0419099256396,-1.05331146717,71.6376571655,,,,,1.3,-2.93,0.77,62.3492510319
0.0672116950154,0.0432415232062,-1.0606085062,71.677298069,,,,,0.1,-3.56,0.37,62.3851361275
0.0632401555777,0.0511968582869,-1.06360673904,71.6797070503,,,,,2.64,-3.83,-1.29,62.3860449791
0.0517906025052,0.0579890757799,-1.06833767891,71.6820671558,,,,,5.25,-3.06,1.03,62.3864400387
0.0604900494218,0.0649581849575,-1.05752456188,71.6844761372,,,,,2.66,-3.17,3.18,62.3868050575
0.0701741725206,0.0547094494104,-1.04501700401,71.6868832111,,,,,-0.33,-3.69,5.05,62.3871691227
0.0765203237534,0.0414081215858,-1.06271970272,71.727107048,,,,,-2.21,-5.01,5.98,62.3875331879
0.0789960920811,0.0378765016794,-1.06331324577,71.7294771671,,,,,-0.71,-5.13,5.23,62.3884420395
0.086861923337,0.0612751245499,-1.04948019981,71.7318480015,,,,,2.84,-3.27,3.38,62.3888351917
0.090643659234,0.0564214512706,-1.04610896111,71.734290123,,,,,1.17,-2.39,3.34,62.3891990185
0.0894252210855,0.0342006459832,-1.05851590633,71.7698931694,,,,,-4.45,-1.67,2.61,62.3895661831
0.0912655070424,0.0450607985258,-1.05893659592,71.7722690105,,,,,-5.64,-1.76,1.39,62.3899300098
0.0829899832606,0.0502877086401,-1.06842017174,71.7747089863,,,,,-2.26,0.08,-2.19,62.3908700943
0.0640165433288,0.0423844382167,-1.07220220566,71.7770822048,,,,,-3.28,1.61,-1.33,62.3912651539
0.0665475577116,0.044289521873,-1.07863783836,71.7794561386,,,,,-5.45,1.38,-1.47,62.3916261196
0.0816130489111,0.0440837219357,-1.0847581625,71.817797184,,,,,-7.8,0.47,-3.23,62.3919911385
0.0654307156801,0.0310300532728,-1.09214937687,71.8201651573,,,,,-7.43,0.65,-3.99,62.3923552036
0.0556552410126,0.0376859754324,-1.1042548418,71.8225750923,,,,,-5.73,1.78,-2.82,62.3933050632
0.0707314163446,0.0426704660058,-1.10512042046,71.8249871731,,,,,-5.73,1.28,0.98,62.3936979771
0.073806412518,0.0365720465779,-1.09861624241,71.8273611069,,,,,-6.67,-1.5,2.41,62.3940629959
0.0727607756853,0.0314566120505,-1.09363472462,71.8674461842,,,,,-6.4,-2.89,1.68,62.3944280148
0.0930977761745,0.0290889721364,-1.08559536934,71.8698530197,,,,,-4.18,-3.13,-0.34,62.3947930336
0.106412872672,0.0176986847073,-1.06544661522,71.8722290993,,,,,-3.09,-2.07,-0.43,62.3957030773
0.109234698117,-0.00892844982445,-1.05770277977,71.8747000694,,,,,-2.6,0.23,2.36,62.4330790043
0.124407961965,-0.0316597446799,-1.05777776241,71.8770680428,,,,,-2.55,-0.32,2.2,62.4334490299
0.134041890502,-0.0303986053914,-1.05124306679,71.9153790474,,,,,-0.87,-2.36,-0.62,62.4338130951
0.136438757181,-0.0174526479095,-1.05557727814,71.9177889824,,,,,0.63,-2.72,-2.17,62.4341771603
0.143177613616,-0.00810556672513,-1.06191623211,71.9201660156,,,,,2.16,-1.46,-2.51,62.4350850582
0.147670894861,0.00218379311264,-1.05513572693,71.9225389957,,,,,1.82,1.02,-0.37,62.4354782104
0.140511825681,-0.00239185802639,-1.03708600998,71.9599781036,,,,,1.9,1.74,-0.78,62.4358420372
0.124658666551,0.00104675628245,-1.03584730625,71.9623541832,,,,,2.66,0.79,-2.25,62.4362061024
0.100659988821,0.0143376160413,-1.0203025341,71.9648110867,,,,,5.47,-1.53,-4.88,62.4365730286
795592256.0,3.83798240895e+33,-3.48353429436e-10,71.9672250748,,,,,6.21,-2.09,-4.79,62.4374849796
0.089317470789,0.0814884603024,-1.00856244564,71.9698970318,,,,,7.38,-0.95,-1.04,62.4378800392
0.0827994197607,0.0743088051677,-1.01765739918,72.0081090927,,,,,7.69,-0.38,-0.76,62.4382500648
0.0573396608233,0.045508287847,-1.04088580608,72.0104811192,,,,,7.95,-1.01,-2.57,62.4385991096
0.0580570176244,0.0618420392275,-1.02992045879,72.0128920078,,,,,8.35,-1.65,-3.72,62.4389631748
0.0655440837145,0.0492814034224,-1.02479147911,72.0153059959,,,,,8.7,-1.84,-4.26,62.4398720264
0.0422121211886,0.0336819365621,-1.03691506386,72.0176811218,,,,,8.29,-0.46,-1.09,62.440267086
0.0321779847145,0.0600054860115,-1.03725731373,72.0573182106,,,,,6.61,0.31,0.66,62.4406301975
0.0260372478515,0.0737486630678,-1.03045582771,72.0596930981,,,,,5.32,0.11,0.55,62.440994978
0.0190208535641,0.0712222754955,-1.04169023037,72.0620989799,,,,,4.58,-0.15,0.04,62.4413590431
0.0455401316285,0.0617507100105,-1.04228413105,72.0645201206,,,,,6.22,0.79,-0.86,62.4422700405
0.0543733388186,0.068127848208,-1.03878462315,72.0668940544,,,,,8.78,3.5,1.4,62.4426631927
0.0591727048159,0.0730105936527,-1.03759384155,72.1053431034,,,,,8.15,3.43,2.09,62.4430541992
0.0557351633906,0.0803267657757,-1.04304862022,72.1077170372,,,,,7.02,2.85,2.14,62.4434211254
0.0517051517963,0.0878231078386,-1.05131244659,72.1101222038,,,,,6.15,1.81,0.66,62.4437839985
0.0756249278784,0.0801368951797,-1.06067740917,72.112498045,,,,,7.58,2.2,-0.38,62.4820511341
0.0794513747096,0.0810555443168,-1.07293426991,72.1487290859,,,,,10.84,5.64,0.88,62.4824450016
0.0761069580913,0.0873601436615,-1.0710875988,72.1511340141,,,,,7.44,4.41,3.88,62.482842207
0.0717206001282,0.0816078484058,-1.08715009689,72.1535460949,,,,,5.06,2.53,4.32,62.4832100868
0.0544117391109,0.0725085735321,-1.09490001202,72.1559181213,,,,,3.27,0.73,3.78,62.4835760593
0.0649645775557,0.0724169611931,-1.09134328365,72.1583302021,,,,,2.62,0.1,1.39,62.4844851494
0.0718712508678,0.0838101133704,-1.08191418648,72.1977291107,,,,,3.21,5.2,2.71,62.4848771095
0.0747181996703,0.0874042212963,-1.06512725353,72.200106144,,,,,2.7,5.66,3.94,62.4852411747
0.0668385624886,0.0834148079157,-1.06630635262,72.2024810314,,,,,1.92,4.73,4.29,62.4856071472
0.0670810118318,0.0691763311625,-1.07391357422,72.2048912048,,,,,0.59,1.17,1.35,62.4859731197
0.0728454291821,0.0587390735745,-1.06336772442,72.2072970867,,,,,-0.06,0.61,-1.04,62.4868850708
0.0704760029912,0.0630361735821,-1.06712305546,72.2478461266,,,,,-0.52,5.38,-3.39,62.4872770309
0.0718049034476,0.060192771256,-1.07686936855,72.250218153,,,,,0.17,7.01,-2.22,62.4876430035
0.0592950135469,0.059320114553,-1.06664955616,72.2525861263,,,,,2.1,6.26,-1.26,62.4880051613
0.054124481976,0.0574344843626,-1.06721389294,72.2550292015,,,,,2.14,4.49,-2.33,62.4883701801
0.0647472813725,0.0570575818419,-1.06249773502,72.2573900223,,,,,-0.12,2.4,-5.56,62.4892821312
0.0772885456681,0.0644225031137,-1.05561327934,72.2952480316,,,,,-2.48,3.65,-5.5,62.489675045
0.0852520018816,0.0543093457818,-1.05428445339,72.2976200581,,,,,0.16,4.96,-1.92,62.4900381565
0.0871338844299,0.0424463674426,-1.05734872818,72.2999920845,,,,,3.3,4.56,-0.79,62.4904019833
0.0703258812428,0.0330331251025,-1.03688526154,72.3023920059,,,,,7.52,2.48,-1.8,62.4907660484
0.0647680386901,0.0440912544727,-1.02545046806,72.3386340141,,,,,7.6,1.8,-3.31,62.4916760921
0.088714428246,0.0660893619061,-1.03629410267,72.3410060406,,,,,3.01,2.86,-3.63,62.492069006
0.100040234625,0.0795105025172,-1.05070865154,72.3434510231,,,,,2.94,3.05,-1.9,62.4924349785
0.0879390537739,0.0863529294729,-1.06857419014,72.3458220959,,,,,7.32,2.11,0.56,62.4928190708
0.0806012898684,0.092400431633,-1.0597397089,72.3481941223,,,,,9.69,1.53,0.33,62.4931871891
0.0801330506802,0.0928856432438,-1.06910538673,72.3880310059,,,,,9.69,1.55,-2.17,62.5288450718
0.0756605044007,0.0716702342033,-1.07661187649,72.3904390335,,,,,4.08,3.6,-3.52,62.5292401314
0.0613683909178,0.0757309943438,-1.06488800049,72.392843008,,,,,-0.45,5.27,-1.82,62.5296041965
0.0670456588268,0.0755554437637,-1.06460082531,72.3952209949,,,,,-0.31,5.28,-0.72,62.5299701691
0.076477766037,0.0695559456944,-1.06567442417,72.3976240158,,,,,2.72,4.39,-0.15,62.5303330421
0.0729658380151,0.0670465826988,-1.05614519119,72.4370090961,,,,,3.36,3.99,-0.44,62.5312440395
0.080454275012,0.0630988031626,-1.06825459003,72.4394171238,,,,,-0.91,4.29,-1.04,62.5316390991
