acc x,acc y,acc z,accTime,com x,com y,com z,comTime,gyro x,gyro y,gyro z,gyroTime
-0.0945361703634,0.0411232113838,-1.19020605087,100.874317169,,,,,5.41,188.93,-5.74,100.873165131
-0.0654620304704,0.0428207367659,-1.18146538734,100.876708031,,,,,9.16,188.83,-5.41,100.873548985
-0.0233036838472,0.0476383566856,-1.17129313946,100.879180193,,,,,9.24,189.86,-4.39,100.87391305
-0.00988325849175,0.0516157075763,-1.15315163136,100.881572008,,,,,7.66,191.15,-3.43,100.874829054
-0.0070821903646,0.0590050593019,-1.13090634346,100.884003162,,,,,0.57,190.62,-3.89,100.875227213
0.0113235926256,0.0541127845645,-1.13213169575,100.88649416,,,,,-0.74,188.04,-5.14,100.87559104
0.0170910861343,0.0493139177561,-1.15349304676,100.888853073,,,,,-0.53,187.95,-5.1,100.875955105
0.0199076980352,0.0480366200209,-1.1690582037,100.89124012,,,,,-0.28,189.1,-4.7,100.876317024
0.016918476671,0.0548449084163,-1.19570410252,100.893704176,,,,,0.17,191.86,-3.93,100.877241135
0.0122061278671,0.0615539327264,-1.17905533314,100.896092176,,,,,-1.72,187.79,-4.95,100.877701044
-0.00746920518577,0.0525876879692,-1.18443608284,100.898483038,,,,,-3.14,185.45,-5.31,100.878065109
-0.00799214839935,0.0456852242351,-1.19550323486,100.90085721,,,,,-4.37,184.21,-5.48,100.878427029
0.00282001122832,0.0494599938393,-1.18938696384,100.903318167,,,,,-3.9,185.23,-5.67,100.878787994
0.0027922950685,0.0562887936831,-1.18890428543,100.905691147,,,,,-1.88,185.94,-5.77,100.879692078
0.00283634290099,0.0532863214612,-1.17026340961,100.908106089,,,,,2.83,182.67,-6.44,100.88008213
-0.00898311287165,0.0513493865728,-1.14153790474,100.910516977,,,,,2.01,179.99,-6.47,100.88044405
-0.0197939015925,0.0510967895389,-1.11707806587,100.912936211,,,,,-1.27,175.7,-6.55,100.880814075
-0.0110980384052,0.0581663250923,-1.12607634068,100.915320158,,,,,-2.05,174.26,-6.53,100.881180048
-0.0206763185561,0.0802998691797,-1.13669037819,100.917742014,,,,,-0.18,172.73,-6.1,100.882079124
-0.0237474888563,0.0787974223495,-1.1269954443,100.920144081,,,,,2.81,167.46,-3.78,100.882469177
-0.0181704871356,0.0493268445134,-1.11971926689,100.922515154,,,,,2.02,164.52,-3.25,100.882882118
-0.0153412297368,0.0198798235506,-1.12325036526,100.925206184,,,,,0.51,161.09,-3.04,100.883246183
-0.0176903791726,0.0465676784515,-1.11673212051,100.927623987,,,,,-1.98,155.66,-3.37,100.883609056
-0.0190872773528,0.0844826474786,-1.10254991055,100.929999113,,,,,-2.32,154.08,-3.45,100.884572983
-0.0130466707051,0.074622489512,-1.09162056446,100.932408094,,,,,-0.2,151.66,-2.56,100.884966135
-0.0176574140787,0.0475327074528,-1.09482300282,100.934888124,,,,,0.73,149.73,-2.59,100.885334015
-0.0198315493762,0.0466848686337,-1.10498189926,100.937265158,,,,,1.59,144.0,-3.6,100.885740042
-0.0093960724771,0.0776302814484,-1.09361076355,100.939640045,,,,,1.43,141.34,-4.37,100.886104107
-0.012829978019,0.0745541229844,-1.07976973057,100.94206214,,,,,0.13,138.62,-5.29,100.887006044
-0.0203962810338,0.0617164820433,-1.08199942112,100.944502115,,,,,-0.58,137.25,-5.77,100.887395144
-0.0240591876209,0.0896311327815,-1.0735014677,100.946890116,,,,,0.73,132.65,-5.88,100.887756109
-0.022449914366,0.097014605999,-1.08507454395,100.949263096,,,,,1.82,129.48,-5.89,100.888117075
-0.014944601804,0.0762699395418,-1.09809207916,100.95167017,,,,,2.92,124.41,-5.54,100.888478041
-0.0142810828984,0.0897183716297,-1.08820605278,100.954105139,,,,,2.36,123.2,-5.38,100.88936615
-0.0177575685084,0.0879992395639,-1.05776429176,100.956479073,,,,,-2.03,117.72,-4.74,100.889756203
-0.0237266235054,0.0586068183184,-1.06041646004,100.958909035,,,,,-2.83,114.7,-4.45,100.890124083
-0.0251824371517,0.0425392538309,-1.05886483192,100.961283207,,,,,-2.17,109.2,-3.71,100.890488148
-0.0171680189669,0.0477833747864,-1.05396795273,100.963688135,,,,,-0.96,107.96,-3.54,100.890849113
-0.0105474069715,0.0597112625837,-1.05288374424,100.966113091,,,,,1.16,106.44,-3.51,100.891752005
-0.00849272869527,0.0594288855791,-1.05822372437,100.968486071,,,,,0.24,102.97,-3.31,100.892141104
-0.00531360134482,0.0587201118469,-1.07110142708,100.970860004,,,,,-3.07,97.51,-2.86,100.892502069
-0.00981868058443,0.0500975102186,-1.06151866913,100.973263979,,,,,-4.22,95.74,-2.88,100.892901182
-0.0071249678731,0.0257168132812,-1.04615259171,100.975661039,,,,,-2.31,94.06,-3.56,100.893268108
-0.000983988749795,0.0132067035884,-1.03682887554,100.978061199,,,,,0.34,93.46,-3.73,100.894215107
-0.00142327870708,0.040463283658,-1.04303240776,100.98043108,,,,,3.73,88.13,-2.02,100.894603014
0.00133109476883,0.0555587783456,-1.05005979538,100.982872009,,,,,1.13,85.92,-1.25,100.894965172
-0.00888281688094,0.0445740669966,-1.04044270515,100.985254049,,,,,-5.71,82.08,-0.91,100.895334005
-0.0148647986352,0.0296736266464,-1.03891181946,100.98766017,,,,,-7.21,80.65,-1.15,100.895702124
-0.00254024192691,0.0275979284197,-1.05987536907,100.990071058,,,,,-4.15,78.18,-1.1,100.896636009
-0.0127934366465,0.02153054066,-1.08032226562,100.992439985,,,,,0.32,75.68,0.46,100.897025108
-0.0238442420959,0.0086206626147,-1.07685124874,100.99485302,,,,,-2.0,72.54,1.58,100.897387028
-0.0242240391672,-0.00902811065316,-1.0719088316,100.997228146,,,,,-5.33,70.68,1.47,100.897747993
-0.0272926688194,-0.0117396470159,-1.06965434551,100.999660015,,,,,-10.13,67.34,0.29,100.898109198
-0.0329168736935,0.015585957095,-1.07464289665,101.002036095,,,,,-10.09,66.28,-0.11,100.898995161
-0.0236724093556,0.0312145296484,-1.06967663765,101.004462004,,,,,-2.24,65.0,-0.02,100.899384022
-0.022786218673,0.0138493347913,-1.05479776859,101.006869078,,,,,-0.25,63.9,0.11,100.899744034
-0.0309814382344,-0.00540935341269,-1.03735423088,101.009241104,,,,,-0.76,60.5,-0.4,100.900107145
-0.026621747762,-8.89655202627e-05,-1.02208268642,101.011644125,,,,,-2.72,59.01,-0.96,100.900467157
-0.0280618034303,0.020311081782,-1.01842534542,101.014091015,,,,,-4.65,58.44,-1.62,100.901373148
-0.028210055083,0.013047112152,-1.03176927567,101.016468048,,,,,-3.93,59.06,-3.01,100.901803017
-0.0166050232947,0.00182747654617,-1.03220653534,101.018839121,,,,,1.19,56.62,-2.94,100.902165174
-0.00701397284865,0.0130139552057,-1.03771293163,101.021210194,,,,,2.44,54.48,-2.71,100.902527094
-0.0152654834092,0.0163346398622,-1.05116975307,101.023683071,,,,,2.27,52.64,-2.61,100.902922153
-0.0215311832726,0.00645637325943,-1.07337915897,101.026046991,,,,,-2.0,51.28,-2.97,100.903825045
-0.0215827189386,0.021469315514,-1.06375527382,101.02841711,,,,,-6.26,50.61,-3.41,100.904216051
-0.0217982493341,0.026536276564,-1.07962846756,101.030820131,,,,,-5.18,48.94,-3.03,100.904578209
-0.0169046744704,0.0290282983333,-1.07138764858,101.033248186,,,,,-1.37,44.72,-1.93,100.904939175
-0.0265564583242,0.0334203019738,-1.04503083229,101.035623074,,,,,-0.16,43.11,-1.5,100.90530014
-0.032892473042,0.0135093908757,-1.05579054356,101.038030148,,,,,-3.62,41.91,-1.25,100.906198025
-0.0250906534493,0.0108507741243,-1.07455229759,101.040405989,,,,,-6.01,41.66,-1.34,100.906588078
-0.0244379453361,0.0312966778874,-1.08362877369,101.042779207,,,,,-8.26,40.18,-1.7,100.906949997
-0.0322518125176,0.0274773221463,-1.07277083397,101.045232058,,,,,-6.93,39.09,-1.91,100.907309055
-0.0292404405773,-0.00671289395541,-1.06724023819,101.047644138,,,,,-3.99,37.97,-2.02,100.907709122
-0.0170368775725,-0.0206369366497,-1.04589545727,101.050027132,,,,,2.77,36.24,-1.74,100.908612013
-0.0127076804638,-0.0102739799768,-1.03097820282,101.052396059,,,,,-1.7,34.85,-0.53,100.909002066
-0.0212516076863,0.000711524859071,-1.04113280773,101.054865122,,,,,-6.24,34.36,-0.66,100.909363985
-0.0136177614331,0.00332298874855,-1.05261278152,101.057269096,,,,,-9.47,33.61,-1.03,100.909764051
-0.0181573405862,0.0175438057631,-1.05151617527,101.059640169,,,,,-6.94,30.98,-1.52,100.910127163
-0.0250700078905,0.024080934003,-1.04101634026,101.062039137,,,,,-2.27,29.45,-0.98,100.911028147
-0.0171754397452,0.0311562474817,-1.04280412197,101.064855099,,,,,1.6,26.61,2.06,100.911417007
-0.0132880136371,0.0400531068444,-1.03869199753,101.067227125,,,,,-3.31,26.1,2.45,100.911778212
-0.00668584369123,0.0230608750135,-1.05688667297,101.069676161,,,,,-12.98,24.1,1.55,100.912141085
-0.00871688872576,-0.0024884250015,-1.0649086237,101.072052002,,,,,-13.48,22.51,0.9,100.912501097
-0.0130191892385,-0.00898065976799,-1.0635342598,101.074465036,,,,,-5.57,19.97,0.67,100.913453102
-0.0166974328458,0.00677537731826,-1.0627951622,101.076839209,,,,,2.25,20.08,1.78,100.913844109
-0.0290519595146,-0.00117255747318,0.100648827851,101.079261065,,,,,0.3,19.66,2.62,100.914205074
-0.0407839864492,-0.0240215864033,-1.03899824619,101.081622124,,,,,-2.84,18.37,2.49,100.914566994
-0.0174296535552,-0.010469365865,-1.042558074,101.084037066,,,,,-6.65,15.32,1.28,100.914929152
-0.0121935270727,-0.0282826330513,-1.02949285507,101.086457014,,,,,-6.19,15.04,0.64,100.915839195
-0.0142032392323,-0.0180720314384,-1.02476155758,101.088840008,,,,,1.96,17.11,1.14,100.916235209
-0.00449003279209,-0.000666787847877,-1.00458741188,101.091245174,,,,,4.05,16.25,2.06,100.916597128
-0.0129811130464,0.00570662878454,-1.00418698788,101.093725204,,,,,2.61,11.43,3.23,100.916958094
-0.0137189179659,-0.0103450063616,-1.0126619339,101.096107006,,,,,-0.73,9.49,2.92,100.917318106
-0.00151818606537,-0.00609767343849,-1.01735067368,101.098482132,,,,,-7.49,9.53,1.49,100.918254137
-0.00301461480558,0.00140100717545,-1.01476049423,101.100861073,,,,,-5.67,11.36,1.44,100.918668032
-0.0132880136371,0.00452437065542,-1.03359389305,101.103325129,,,,,2.54,8.81,3.07,100.91903019
-0.0176395475864,-0.000190852209926,-1.03073942661,101.105702162,,,,,4.65,6.61,3.47,100.919393063
-0.0198744945228,-0.00395819544792,-1.0166785717,101.108072996,,,,,0.55,4.84,2.26,100.919753075
-0.0170868448913,-0.00351174175739,-1.02038550377,101.110479116,,,,,-3.91,5.73,1.25,100.920653105
-0.0156695134938,-0.0188536513597,-1.0158598423,101.112877131,,,,,-6.33,8.39,0.37,100.921042204
-0.0231589823961,-0.0172663312405,-1.01843452454,101.115272999,,,,,-3.15,7.85,0.74,100.921404123
-0.0309181082994,-0.00260338559747,-1.02484738827,101.117681026,,,,,2.45,6.62,0.51,100.921764135
-0.0234229639173,0.00122476927936,-1.03690397739,101.120048046,,,,,3.07,6.52,-0.05,100.922126055
-0.0270511992276,0.00033506937325,-1.05250871181,101.122421026,,,,,0.82,6.94,-1.08,100.923299074
-0.0392334759235,-0.0118026230484,-1.05045306683,101.124848127,,,,,-2.27,6.26,-1.39,100.92369318
-0.0333569794893,-0.0346278175712,-1.04322016239,101.127273083,,,,,-2.45,5.63,-1.85,100.924056053
-0.0290229655802,-0.0356483012438,-1.03874957561,101.129659176,,,,,-0.62,5.59,-2.29,100.924439192
-0.0376681983471,-0.0135170798749,-1.02649450302,101.132035017,,,,,6.72,5.6,-2.99,100.924813986
-0.041534870863,-0.000253230333328,-1.02731907368,101.134474039,,,,,9.85,5.22,-3.15,100.92575717
-0.041567414999,0.00564571283758,-1.03502523899,101.167767048,,,,,5.58,3.79,-4.12,100.926148176
-0.0279814712703,-0.00937275215983,-1.03778553009,101.170449018,,,,,1.38,3.9,-4.78,100.926510096
-0.0188466794789,-0.0298342313617,-1.03134095669,101.172854185,,,,,-0.5,4.51,-5.57,100.926872015
-0.0212813802063,-0.0324215590954,-1.02808797359,101.175265074,,,,,3.19,4.5,-5.36,100.927234173
-0.0207365043461,-0.0333928689361,-1.01674556732,101.17763114,,,,,11.99,3.39,-3.56,100.928135157
-0.0301533062011,-0.0271696057171,-1.00176095963,101.21671319,,,,,10.36,1.31,-1.64,100.928524017
-0.0263900123537,-0.024483403191,-0.974672794342,101.219083071,,,,,0.99,-0.96,-0.47,100.928886175
-0.00848701223731,-0.0521784201264,-0.991529583931,101.221798182,,,,,-1.02,-1.98,-0.2,100.929247141
-0.0190622322261,-0.0896363705397,-1.01019513607,101.224206209,,,,,0.18,-2.67,0.1,100.92960906
-0.0235667861998,-0.0685706883669,-1.00272321701,101.22657609,,,,,8.64,-2.91,1.16,100.930541039
-0.0123401097953,-0.0387191772461,-1.00378954411,101.266036034,,,,,9.64,-3.98,3.2,100.930934191
-0.00668927282095,-0.0524176880717,-1.02231121063,101.26840806,,,,,5.64,-5.3,3.44,100.931295156
-0.00810619816184,-0.0552636682987,-1.01358830929,101.270811081,,,,,-1.1,-7.68,2.75,100.931656122
-0.0113173387945,-0.0341514274478,-1.01269245148,101.273283005,,,,,-2.0,-7.97,2.12,100.932017088
-0.00799262709916,-0.022559357807,-1.01609063148,101.309375048,,,,,-1.25,-7.46,1.55,100.932960987
-0.00972723588347,-0.0220569763333,-1.01161587238,101.311782122,,,,,3.88,-6.06,1.46,100.933351994
-0.0164800472558,-0.0385628119111,-0.999885559082,101.314199209,,,,,3.28,-8.42,1.52,100.933750153
-0.0304518062621,-0.0522798895836,-0.993986725807,101.316580057,,,,,1.69,-10.13,1.16,100.934123993
-0.039212577045,-0.0677912458777,-0.996236920357,101.318989038,,,,,-0.13,-11.46,0.66,100.934490204
-0.0316967740655,-0.0696571543813,-0.997580051422,101.358514071,,,,,-1.21,-12.08,-0.04,100.935404062
-0.0157000012696,-0.0531555712223,-0.984332084656,101.36088419,,,,,9.76,-11.42,0.43,100.935794115
-0.00523392856121,-0.0497539639473,-0.998922467232,101.363293171,,,,,14.13,-11.94,0.59,100.936155081
-0.012926928699,-0.0566873773932,-1.00991690159,101.365694046,,,,,16.69,-12.86,0.64,100.936515093
-0.0169907175004,-0.0534294843674,-1.00074219704,101.368066072,,,,,14.26,-14.72,0.81,100.936875105
-0.00679258443415,-0.0586391165853,-0.997606873512,101.406998158,,,,,10.9,-15.24,1.15,100.937775135
-0.00288560800254,-0.0693926736712,-0.983657479286,101.409372091,,,,,10.7,-14.68,2.82,100.938165188
-0.00527320988476,-0.0723819285631,-0.978398442268,101.411781073,,,,,14.86,-14.59,3.15,100.938527107
-0.0111422799528,-0.0661061629653,-0.978499531746,101.414233208,,,,,21.48,-15.33,2.94,100.938889027
-0.0239218659699,-0.0605996772647,-0.981225132942,101.416607141,,,,,20.92,-15.83,2.54,100.939249039
-0.0289920158684,-0.0516671538353,-1.00152015686,101.454826117,,,,,13.27,-15.99,1.81,100.940152168
-0.016767475754,-0.0659625306726,-1.00954961777,101.457199097,,,,,9.67,-15.26,1.13,100.940541029
-0.0181442163885,-0.0790210664272,-1.00419664383,101.459573984,,,,,13.5,-15.5,0.88,100.940903187
-0.0249301753938,-0.0630193129182,-0.997341871262,101.461979151,,,,,18.24,-15.9,0.57,100.941264153
-0.0109256021678,-0.0797903910279,-1.01541960239,101.498054981,,,,,23.64,-16.12,0.17,100.941668987
-0.00734834000468,-0.10582357645,-1.02607345581,101.500430107,,,,,23.16,-15.79,0.01,100.942601204
-0.0271549038589,-0.0974553227425,-1.02099025249,101.502866983,,,,,18.15,-15.51,-0.29,100.943021059
-0.0234883949161,-0.0813516080379,-1.00579333305,101.505246162,,,,,19.42,-16.08,-0.55,100.943386078
-0.0170281007886,-0.0760766193271,-1.01130616665,101.50762105,,,,,27.51,-16.52,-0.73,100.943747044
-0.0287949182093,-0.0783026888967,-1.01373577118,101.547066212,,,,,32.13,-15.92,-0.47,100.944110155
-0.0264636389911,-0.0811937376857,-1.02373182774,101.54946804,,,,,36.67,-14.22,0.57,100.94502306
-0.0283603183925,-0.0794929787517,-1.03546106815,101.551863194,,,,,32.93,-14.96,0.98,100.945417166
-0.0379404500127,-0.0652360394597,-1.01627886295,101.554272175,,,,,27.79,-17.68,0.2,100.945779085
-0.0243881121278,-0.0621013864875,-1.0027589798,101.556645155,,,,,27.64,-18.36,0.01,100.946140051
-0.0137488096952,-0.0900531411171,-0.997039318085,101.596600056,,,,,32.56,-17.25,1.14,100.946501017
-0.0316014513373,-0.0832481905818,-1.00750017166,101.59900403,,,,,35.86,-16.44,2.17,100.947401047
-0.0476745888591,-0.064647346735,-1.01275265217,101.601410151,,,,,37.14,-18.92,2.28,100.947790146
-0.0455951988697,-0.0605187490582,-1.02529108524,101.603821993,,,,,34.62,-20.67,1.27,100.948151112
-0.0365870967507,-0.0635839551687,-1.02172040939,101.606263161,,,,,32.08,-21.75,0.12,100.948512077
-0.0477988049388,-0.0830694362521,-1.02790510654,101.644808054,,,,,33.82,-20.76,0.61,100.948873043
-0.0535124838352,-0.0810685604811,-1.02684032917,101.647215128,,,,,43.31,-18.7,2.39,100.949808121
-0.0473112389445,-0.0648566558957,-1.01634573936,101.649589062,,,,,53.03,-20.04,2.55,100.950198174
-0.0388079583645,-0.0585611239076,-1.00311863422,101.651960135,,,,,55.36,-22.54,1.12,100.950559139
-0.029297914356,-0.0866571813822,-0.996774077415,101.688066006,,,,,54.17,-22.52,0.65,100.950919151
-0.0304670725018,-0.0913479998708,-0.991758584976,101.690442085,,,,,52.28,-19.95,0.75,100.951280117
-0.0226583667099,-0.0795133039355,-0.993936061859,101.692895174,,,,,53.71,-18.71,0.89,100.952180147
-0.0273962691426,-0.0929944515228,-0.992659807205,101.695316076,,,,,66.31,-20.38,0.24,100.952571154
-0.0354473367333,-0.0999903678894,-0.994471788406,101.69768405,,,,,68.67,-21.34,0.0,100.952964067
-0.0318333357573,-0.0894690752029,-1.00664687157,101.7371912,,,,,64.74,-20.78,-0.07,100.953327179
-0.030751304701,-0.0824583619833,-1.01546442509,101.73956418,,,,,59.6,-19.62,-0.17,100.953713179
-0.0308642927557,-0.0867249816656,-1.01153600216,101.741970062,,,,,52.28,-18.65,-0.79,100.954617023
-0.0344115272164,-0.0869660153985,-1.00843536854,101.744388103,,,,,57.14,-20.78,-0.88,100.955007076
-0.0409781858325,-0.0814628079534,-1.00067961216,101.74676013,,,,,66.81,-22.18,0.41,100.955367088
-0.044545955956,-0.0721281468868,-1.00492441654,101.786820173,,,,,68.69,-21.78,1.1,100.955729008
-0.0434796214104,-0.0571583211422,-0.995597481728,101.789191008,,,,,67.34,-21.15,1.47,100.95608902
-0.0482208430767,-0.0657460018992,-0.995574116707,101.791609049,,,,,60.45,-21.48,0.96,100.957000017
-0.0461862236261,-0.0892799347639,-1.02249014378,101.794075012,,,,,66.35,-24.12,0.11,100.957411051
-0.0514213442802,-0.0926145687699,-1.0405381918,101.796447992,,,,,72.69,-23.6,0.39,100.95779109
-0.0600140243769,-0.0811466649175,-1.03468823433,101.833213091,,,,,81.63,-21.46,1.17,100.958153009
-0.0445451065898,-0.0638296082616,-1.02639591694,101.835587978,,,,,82.38,-21.28,1.3,100.958513021
-0.0391909703612,-0.0737307220697,-1.0344440937,101.838316202,,,,,81.32,-22.14,1.18,100.959422112
-0.0647144317627,-0.0783949419856,-1.02971816063,101.840687037,,,,,78.79,-25.12,0.43,100.959811211
-0.0694883689284,-0.0850427001715,-1.01055157185,101.877967119,,,,,83.04,-22.82,0.49,100.960172176
-0.0658758431673,-0.088454388082,-1.00569975376,101.880338192,,,,,86.23,-21.74,0.71,100.960532188
-0.0647044330835,-0.0850096493959,-0.997099876404,101.882712126,,,,,89.51,-21.73,0.9,100.960893154
-0.0565870553255,-0.0787566825747,-0.976616501808,101.885128021,,,,,93.88,-24.74,0.64,100.961789131
-0.0475175231695,-0.0710006579757,-0.954498887062,101.887538195,,,,,89.5,-25.79,-1.03,100.962177038
-0.041123509407,-0.0779362544417,-0.972489535809,101.927455187,,,,,86.95,-24.36,-1.23,100.962538004
-0.0309549365193,-0.0922717675567,-0.990288496017,101.929825068,,,,,86.09,-23.24,-1.01,100.962931156
-0.0303707141429,-0.101839587092,-0.998657941818,101.932198048,,,,,91.73,-24.05,-0.07,100.963298082
-0.0393454059958,-0.107164286077,-0.981562852859,101.934641123,,,,,100.5,-26.56,-0.35,100.964199066
-0.0441773757339,-0.1000649333,-0.986705303192,101.93701601,,,,,98.79,-25.83,-1.39,100.964608192
-0.0473180785775,-0.0895202159882,-0.994394540787,101.976264,,,,,94.0,-24.52,-1.44,100.964971066
-0.0484143942595,-0.088484570384,-0.993003726006,101.97863698,,,,,86.86,-23.43,0.04,100.965330124
-0.04174605757,-0.0875266864896,-1.0060133934,101.981011152,,,,,88.12,-24.29,0.99,100.965723038
-0.0346958339214,-0.085490450263,-1.00747215748,101.983448029,,,,,98.04,-26.43,1.43,100.966623068
-0.0376012846828,-0.096271507442,-1.0051523447,102.02107811,,,,,100.41,-25.13,-0.25,100.967012167
-0.0508142933249,-0.10588196665,-1.01246893406,102.023518085,,,,,95.73,-24.79,-0.23,100.967374086
-0.0783555358648,-0.107628643513,-1.02710974216,102.025894165,,,,,91.09,-25.25,0.17,100.967734098
-0.0966367274523,-0.12165030092,-1.02403867245,102.028305054,,,,,88.96,-27.77,0.84,100.968096018
-0.0974296033382,-0.154363557696,-1.02990043163,102.030716181,,,,,91.86,-28.67,0.66,100.968991995
-0.0939329043031,-0.183821752667,-1.04285788536,102.067867041,,,,,100.54,-27.14,-0.81,100.969382048
-0.0965023413301,-0.197918012738,-1.07461154461,102.070277214,,,,,100.13,-26.64,-0.87,100.969743013
-0.0947468653321,-0.196369454265,-1.08205699921,102.072652102,,,,,95.28,-28.1,-0.44,100.970108032
-0.0930391550064,-0.196067109704,-1.07771372795,102.07506609,,,,,92.78,-29.49,-0.29,100.97047019
-0.0894809216261,-0.202737733722,-1.0772305727,102.07745409,,,,,91.45,-31.01,-0.32,100.971367121
-0.0760400891304,-0.194296494126,-1.06397497654,102.118318081,,,,,94.96,-29.77,0.27,100.971755981
-0.0571083575487,-0.179365679622,-1.05804944038,102.120701075,,,,,100.85,-29.25,1.22,100.972117186
-0.036548614502,-0.148802116513,-1.05822050571,102.123443127,,,,,102.25,-30.27,1.4,100.972479105
-0.0241759829223,-0.12360265106,-1.06161415577,102.125856161,,,,,99.96,-33.5,0.66,100.972870111
-0.035890288651,-0.131645590067,-1.08070790768,102.128230095,,,,,97.36,-34.52,0.08,100.973803997
-0.0453825071454,-0.126961007714,-1.07748937607,102.166599989,,,,,98.22,-33.12,-0.07,100.974186182
-0.0362432897091,-0.110813803971,-1.0687469244,102.168974161,,,,,103.16,-32.7,0.3,100.974549055
-0.0333847254515,-0.105115450919,-1.0786075592,102.171349049,,,,,112.24,-34.46,0.72,100.974909067
-0.0280864201486,-0.082333907485,-1.09492468834,102.173793077,,,,,113.15,-36.19,0.51,100.975270987
-0.0252605900168,-0.0727194324136,-1.11138904095,102.210858107,,,,,107.3,-38.41,-0.19,100.976195097
-0.0408522039652,-0.0777380093932,-1.12481486797,102.213272095,,,,,102.12,-37.57,-0.14,100.976587057
-0.0555988326669,-0.0558915659785,-1.13780903816,102.215677977,,,,,107.33,-37.12,0.86,100.976948977
-0.0431312546134,-0.053977586329,-1.15909683704,102.218053102,,,,,112.03,-38.21,1.43,100.977310181
-0.0364709198475,-0.0684224143624,-1.1660194397,102.220426083,,,,,117.23,-42.0,1.91,100.9776721
-0.045596152544,-0.0415990501642,-1.1447956562,102.257036209,,,,,115.88,-43.34,1.88,100.978569984
-0.0355913117528,-0.0489082783461,-1.13960957527,102.259407043,,,,,106.08,-42.25,1.93,100.97895813
-0.0435484871268,-0.0848757401109,-1.1497232914,102.261814117,,,,,105.38,-41.77,2.12,100.979319096
-0.0363558456302,-0.0676184371114,-1.12535393238,102.264223099,,,,,109.62,-43.46,2.59,100.979681015
-0.0106464624405,-0.0682728365064,-1.11304223537,102.266595125,,,,,112.94,-45.22,2.67,100.980041027
-0.0166754834354,-0.078518755734,-1.11498141289,102.307622194,,,,,115.28,-47.16,2.74,100.980942011
-0.0274358652532,-0.0459858030081,-1.11636841297,102.310029984,,,,,110.41,-45.62,2.65,100.98133111
-0.0431405231357,-0.0395149812102,-1.1043895483,102.312406063,,,,,104.43,-44.61,2.12,100.98172307
-0.0433377623558,-0.0770089253783,-1.10903596878,102.314824104,,,,,103.75,-45.44,1.6,100.982088089
-0.0264271236956,-0.0789187327027,-1.11158752441,102.317195177,,,,,108.75,-48.21,0.45,100.982449055
-0.0303782839328,-0.0606627985835,-1.08766877651,102.357509136,,,,,112.24,-49.0,0.34,100.983383179
-0.0245207957923,-0.0651841014624,-1.08589339256,102.359896183,,,,,112.68,-48.63,2.33,100.983772993
-0.0151248984039,-0.0728153064847,-1.0867909193,102.36227417,,,,,108.75,-49.22,3.08,100.984134197
-0.0136750005186,-0.0777881965041,-1.07675981522,102.364684105,,,,,100.75,-52.09,3.72,100.984495163
-0.0118166469038,-0.0799525380135,-1.08437991142,102.399525166,,,,,99.67,-53.36,3.78,100.984856129
-0.0352769047022,-0.0813303366303,-1.08952391148,102.40191412,,,,,103.73,-53.86,4.85,100.985772133
-0.0471070706844,-0.0743978470564,-1.07330667973,102.404333115,,,,,108.34,-53.82,6.96,100.986164093
-0.0261720269918,-0.0730207562447,-1.05298936367,102.406738997,,,,,103.92,-56.46,7.76,100.986524105
-0.00763512961566,-0.0755020305514,-1.065777421,102.409113169,,,,,99.11,-57.96,7.23,100.986886978
-0.0360220223665,-0.073774702847,-1.07635688782,102.447484016,,,,,95.09,-58.59,6.28,100.987248182
-0.0567140504718,-0.095900580287,-1.08182942867,102.449849129,,,,,94.88,-56.24,4.8,100.9881742
-0.0460563600063,-0.104753814638,-1.06387138367,102.452216148,,,,,106.7,-52.4,4.39,100.988564014
-0.0341507345438,-0.0876684263349,-1.04066884518,102.454691172,,,,,106.98,-53.02,3.89,100.988926172
-0.0277548544109,-0.0898214578629,-1.01647508144,102.457067013,,,,,104.07,-53.97,3.01,100.989287138
-0.0280886255205,-0.116617582738,-1.00372898579,102.496641159,,,,,94.64,-53.79,1.17,100.989680052
-0.0360640212893,-0.13292478025,-1.01479065418,102.499015093,,,,,91.76,-52.05,0.86,100.990580082
-0.0585753694177,-0.142004951835,-1.02449977398,102.50139904,,,,,95.6,-46.96,2.15,100.990967989
-0.0689307674766,-0.146495804191,-1.00399684906,102.503834009,,,,,97.08,-48.53,2.59,100.991329193
-0.0731029435992,-0.12977989018,-0.992779254913,102.506210089,,,,,95.23,-49.89,2.45,100.991689205
-0.0621710270643,-0.0955799818039,-1.01348614693,102.54599309,,,,,92.55,-50.67,2.2,100.992050171
-0.0508391484618,-0.105456069112,-1.02676570415,102.548367977,,,,,87.79,-49.54,2.11,100.992986202
-0.0641425698996,-0.125052347779,-1.04017841816,102.550777197,,,,,86.48,-47.48,2.81,100.993378162
-0.0751386284828,-0.1105825454,-1.04165065289,102.553183079,,,,,86.89,-48.02,3.1,100.993739128
-0.0708523243666,-0.0914866328239,-1.04494929314,102.589301109,,,,,87.75,-48.8,3.31,100.994100094
-0.0633659139276,-0.0856176614761,-1.04658949375,102.591703176,,,,,90.29,-49.03,3.31,100.994463205
-0.0541235804558,-0.086448289454,-1.04191744328,102.594119072,,,,,90.41,-48.22,3.16,100.995364189
-0.0570154488087,-0.0670132935047,-1.04666018486,102.596494198,,,,,83.13,-45.71,2.48,100.99575305
-0.0528107434511,-0.0719599798322,-1.0455994606,102.598896027,,,,,80.62,-45.56,2.48,100.996116161
-0.0566799193621,-0.0891474187374,-1.06283891201,102.637145996,,,,,82.27,-45.25,2.88,100.996477127
-0.0683662518859,-0.0865116864443,-1.07217609882,102.639552116,,,,,86.27,-44.67,3.03,100.996839046
-0.0680807083845,-0.12456189841,-1.07923805714,102.641927004,,,,,92.04,-43.24,2.78,100.99777317
-0.0625137239695,-0.118022255599,-1.04888284206,102.644339085,,,,,86.26,-42.95,1.79,100.998162985
-0.0443621277809,-0.0870891362429,-1.01421165466,102.646745205,,,,,75.63,-42.84,0.73,100.998524189
-0.0305603761226,-0.0958313718438,-0.999240756035,102.687318087,,,,,73.32,-42.19,0.53,100.998906136
-0.0192181654274,-0.084203645587,-0.996438980103,102.689693213,,,,,77.85,-40.21,0.75,100.999269009
-0.01286861673,-0.0582744255662,-0.989944219589,102.692067146,,,,,81.34,-39.62,1.02,101.000172138
-0.0141243971884,-0.050535261631,-0.971385598183,102.694513083,,,,,75.24,-41.34,0.87,101.000560999
0.0132650667801,-0.0609465911984,-0.958408772945,102.696888208,,,,,68.95,-42.04,0.78,101.000922203
0.0309728905559,-0.0584916695952,-0.945836961269,102.734778166,,,,,62.17,-41.94,1.63,101.001284122
0.0186477396637,-0.058977805078,-0.938054084778,102.7371521,,,,,63.89,-41.31,2.71,101.001646042
0.0262046549469,-0.063996553421,-0.941785752773,102.73952508,,,,,71.85,-40.28,4.78,101.002547026
0.0343481302261,-0.0426237285137,-0.939104735851,102.741948128,,,,,71.82,-40.81,5.26,101.002981186
0.0390394516289,-0.0316359177232,-0.949369907379,102.778059006,,,,,62.11,-41.99,4.99,101.003350019
0.0543066188693,-0.0694964006543,-0.959913551807,102.780436993,,,,,58.27,-42.17,5.16,101.003710985
0.0337024778128,-0.0751464143395,-0.939784944057,102.782891035,,,,,57.83,-40.7,6.27,101.004072189
0.0197284966707,-0.0480632260442,-0.91267323494,102.785265207,,,,,59.77,-39.21,6.76,101.004973173
0.0254110042006,-0.0927727073431,-0.912707924843,102.787641048,,,,,58.62,-36.76,6.07,101.005362034
0.0225379094481,-0.113246336579,-0.931862294674,102.827048063,,,,,55.37,-37.62,5.64,101.005755186
0.0339342057705,-0.0500321909785,-0.970540583134,102.82943511,,,,,51.58,-40.0,5.42,101.006118059
0.0490167737007,-0.0555854812264,-1.01175498962,102.831828117,,,,,51.41,-40.09,5.71,101.006478071
0.0410782434046,-0.0812052339315,-1.00562667847,102.834236145,,,,,51.7,-37.41,6.3,101.007379055
0.0333378314972,-0.0707747414708,-0.970447003841,102.836604118,,,,,50.21,-35.09,6.25,101.007769108
0.0279219467193,-0.0805906653404,-0.964150309563,102.876603127,,,,,49.86,-36.91,5.86,101.00812912
0.0229230765253,-0.0971160158515,-0.98900270462,102.879005194,,,,,50.81,-38.23,5.57,101.008491993
0.022316429764,-0.101146787405,-1.00219416618,102.881376982,,,,,50.65,-37.89,4.97,101.008852005
0.0195084735751,-0.0692468732595,-1.00520503521,102.883784056,,,,,47.93,-35.92,4.77,101.009754181
0.0276278425008,-0.0664116963744,-1.03208398819,102.88622117,,,,,39.01,-30.96,4.33,101.010169029
0.0307866632938,-0.0688426867127,-1.04693055153,102.924796104,,,,,39.85,-31.23,4.3,101.010532141
0.0343238413334,-0.0592831298709,-1.03784751892,102.927200079,,,,,45.57,-32.73,4.5,101.010892153
0.0327885709703,-0.0768924877048,-1.01564657688,102.929567099,,,,,46.5,-32.6,4.85,101.011254072
0.0253279209137,-0.0919833183289,-0.993781089783,102.931935072,,,,,38.68,-30.04,5.73,101.012154102
0.0496877282858,-0.101673170924,-0.994089484215,102.968137026,,,,,27.34,-27.79,5.68,101.012542009
0.0621323212981,-0.112400256097,-0.991992712021,102.970512152,,,,,27.14,-28.2,5.21,101.012934208
0.0739042162895,-0.0942654013634,-0.980258464813,102.972912073,,,,,30.96,-28.8,5.31,101.013297081
0.0996626093984,-0.0950572416186,-0.97968506813,102.975321054,,,,,34.44,-28.99,5.72,101.013689995
0.0872234031558,-0.0929165557027,-0.975232303143,102.97768116,,,,,32.02,-27.87,6.66,101.014605999
0.0813572257757,-0.0571337342262,-0.962930679321,103.017151117,,,,,13.74,-27.18,5.14,101.014994144
0.0853912234306,-0.0521581545472,-0.985006213188,103.01952219,,,,,12.29,-27.81,4.36,101.015356064
0.0698062628508,-0.030422674492,-0.983294963837,103.021929979,,,,,19.64,-28.3,4.23,101.01571703
0.0483355633914,-0.0358110144734,-0.9821652174,103.024384022,,,,,24.22,-27.58,4.89,101.016077995
0.0245356187224,-0.0626304671168,-1.00041687489,103.026757002,,,,,26.3,-26.45,5.67,101.016978979
0.00105606589932,-0.0779740288854,-1.01554524899,103.066743135,,,,,15.37,-26.48,5.86,101.017368078
-0.0125607475638,-0.0642616450787,-1.01969182491,103.069116116,,,,,10.19,-28.75,4.99,101.017729998
-0.0177941657603,-0.0636018142104,-1.02477312088,103.071524143,,,,,12.0,-28.61,5.11,101.01809001
-0.00684857927263,-0.0805407091975,-1.03589761257,103.073935032,,,,,15.63,-27.14,5.68,101.018451214
-0.016760814935,-0.0866587907076,-1.0360994339,103.076305151,,,,,21.86,-23.01,7.1,101.019349098
-0.0268274135888,-0.0785728469491,-1.036221385,103.113318205,,,,,16.47,-26.05,6.37,101.019739151
-0.0138910226524,-0.0697286650538,-1.00661337376,103.115692139,,,,,13.35,-28.11,5.5,101.020099163
-0.0244737192988,-0.0663152039051,-0.982069969177,103.118091106,,,,,11.38,-28.73,4.87,101.020461082
-0.035863623023,-0.0481677874923,-1.01015627384,103.120464087,,,,,11.85,-24.74,4.97,101.020822048
-0.0241653844714,-0.0621438920498,-1.02231800556,103.157972097,,,,,13.67,-21.94,5.53,101.0217731
-0.00838258117437,-0.0861657112837,-1.01772272587,103.160359144,,,,,18.17,-23.78,5.76,101.022173166
-0.00230984948575,-0.0674279779196,-0.993699669838,103.162739038,,,,,17.75,-26.44,4.9,101.022538185
0.00355096161366,-0.0422285944223,-1.00383532047,103.165204048,,,,,14.02,-27.42,3.52,101.022930145
0.00693103298545,-0.0559169724584,-1.01395905018,103.167613029,,,,,11.75,-25.12,3.69,101.023293018
0.00249755010009,-0.0659848824143,-1.00223565102,103.207786083,,,,,10.29,-19.82,5.37,101.024194002
-0.000594261917286,-0.0613103732467,-1.01321840286,103.21015811,,,,,20.27,-22.36,5.56,101.024587154
-0.0157880466431,-0.0665923506021,-1.04660344124,103.212527037,,,,,23.35,-23.85,4.82,101.024932146
0.00608875509351,-0.0806933417916,-1.06586420536,103.214984179,,,,,24.36,-24.03,4.27,101.025293112
0.0183962006122,-0.0920553281903,-1.03989207745,103.217356205,,,,,19.41,-20.74,4.59,101.025655985
-0.003757417202,-0.0805805101991,-1.00699663162,103.256278992,,,,,12.31,-17.8,4.92,101.026556015
-0.000892788055353,-0.0752162411809,-0.985069036484,103.258651018,,,,,13.58,-18.74,3.4,101.026945114
0.0062746424228,-0.0713295266032,-0.965478122234,103.261021137,,,,,17.04,-19.68,2.52,101.02730608
0.0132987834513,-0.0758819803596,-0.942642092705,103.263464212,,,,,21.67,-20.12,2.4,101.027667046
0.0291106849909,-0.0570069923997,-0.931429028511,103.301113129,,,,,19.98,-19.82,3.11,101.028028011
0.0224752090871,-0.0889414325356,-0.988783121109,103.303642988,,,,,8.89,-20.01,4.1,101.028926134
0.00255677476525,-0.066739924252,-1.02973949909,103.306020021,,,,,0.66,-22.15,3.39,101.029314995
0.0142988152802,-0.0289213117212,-1.02648663521,103.308390141,,,,,5.76,-23.55,3.73,101.029707193
0.0225383210927,-0.0442583709955,-1.03775918484,103.310804129,,,,,10.94,-23.34,4.9,101.030069113
0.0231059696525,-0.0747121796012,-1.04517281055,103.348455191,,,,,15.54,-22.39,7.69,101.030431032
0.0233970526606,-0.0884535983205,-1.06600630283,103.350862026,,,,,12.71,-22.5,8.28,101.031331062
0.0346703156829,-0.0753583684564,-1.10562348366,103.353281021,,,,,-0.11,-25.09,6.58,101.031721115
0.0211962088943,-0.0695756748319,-1.12852752209,103.355658054,,,,,0.21,-25.01,6.44,101.032083035
0.0072429580614,-0.066121391952,-1.15807127953,103.358062029,,,,,7.44,-22.11,7.96,101.032443047
0.0169638395309,-0.0646139383316,-1.17743086815,103.396850109,,,,,10.62,-20.33,8.94,101.032832146
0.0131674278527,-0.0608969405293,-1.18761074543,103.39925313,,,,,9.23,-19.55,9.42,101.033761024
0.00403142720461,-0.0596305206418,-1.21661734581,103.401623011,,,,,0.78,-22.07,7.85,101.03414917
0.00970747508109,-0.0773063078523,-1.23646509647,103.404036999,,,,,-3.36,-21.86,6.81,101.034510136
0.0150364283472,-0.0762174502015,-1.235648036,103.406443119,,,,,-2.44,-19.92,6.92,101.034872055
0.0281547438353,-0.0634778439999,-1.22688007355,103.446552992,,,,,1.99,-15.99,7.59,101.035232067
0.030489327386,-0.0690625533462,-1.23884773254,103.448923111,,,,,3.59,-15.86,7.7,101.036133051
0.0195325296372,-0.0740646794438,-1.26855909824,103.451297045,,,,,2.17,-20.04,5.91,101.036523104
0.0119363646954,-0.0570498332381,-1.27493751049,103.453734159,,,,,0.34,-19.58,5.2,101.036884069
0.0235824473202,-0.0616904199123,-1.28809154034,103.490780115,,,,,-2.39,-14.81,4.31,101.037245989
0.0247179120779,-0.0669646561146,-1.27959811687,103.493239164,,,,,4697620.46,-16273899.57,-1845493.75,101.037638187
0.00984420068562,-0.0626526549459,-1.26722407341,103.495647192,,,,,0.64,-12.81,3.63,101.038541079
0.0166800506413,-0.0645411685109,-1.29370319843,103.498020172,,,,,5.41,-16.19,2.68,101.038930178
0.0308811124414,-0.060799755156,-1.31882500648,103.500393152,,,,,4.96,-14.79,2.13,101.039291143
0.00709178484976,-0.0604350939393,-1.32686674595,103.537031174,,,,,2.35,-12.19,2.06,101.039653063
-0.00493646599352,-0.056118324399,-1.32832324505,103.539397001,,,,,-1.0,-9.66,1.95,101.040014982
0.0121594499797,-0.0591156110168,-1.30887067318,103.541797161,,,,,-4.32,-8.55,1.11,101.040917158
0.00915071740746,-0.0577024146914,-1.29258227348,103.544209003,,,,,4.7,-11.65,0.11,101.041307211
0.00105979677755,-0.0554915368557,-1.2975358963,103.546580076,,,,,6.92,-10.89,0.58,101.041668177
0.00483027007431,-0.0521434023976,-1.3085436821,103.586977005,,,,,3.2,-7.84,1.9,101.042028189
0.0150886513293,-0.0394968688488,-1.29259157181,103.589351177,,,,,-1.97,-7.17,2.1,101.042389154
0.0189248844981,-0.0404686033726,-1.27302920818,103.591758013,,,,,-10.43,-8.82,1.41,101.043321133
0.019044097513,-0.0399569272995,-1.25842034817,103.59418416,,,,,-8.51,-10.49,1.38,101.043721199
0.0144391041249,-0.0318057015538,-1.26032698154,103.596563101,,,,,-1.96,-8.87,3.17,101.044092178
0.0128015466034,-0.0403414294124,-1.27150332928,103.636106014,,,,,-1.07,-8.0,3.98,101.044476986
0.00816142559052,-0.0510913133621,-1.28481924534,103.638509989,,,,,-3.12,-7.86,4.27,101.044841051
0.0111119411886,-0.0498787909746,-1.28567039967,103.640881062,,,,,-12.43,-9.93,3.39,101.045776129
0.0131119340658,-0.0375417023897,-1.27831995487,103.643290997,,,,,-13.78,-10.21,3.86,101.046164989
0.00871882587671,-0.0402851030231,-1.27119159698,103.679485083,,,,,-9.05,-8.71,5.1,101.046526194
0.00582384038717,-0.0612694695592,-1.27281844616,103.681862116,,,,,-4.06,-7.36,6.3,101.046887159
0.0132142901421,-0.0682475343347,-1.28238618374,103.684271097,,,,,-0.67,-7.4,7.21,101.047248125
0.00590087752789,-0.062889508903,-1.29515433311,103.686676979,,,,,-3.45,-8.62,6.8,101.048165083
0.000546336290427,-0.0590515658259,-1.28768229485,103.689094067,,,,,-12.98,-8.99,5.6,101.04855299
-0.000655189040117,-0.0493134483695,-1.28419327736,103.727689028,,,,,-8.08,-5.33,6.43,101.048914194
0.00845504552126,-0.0379149317741,-1.29381072521,103.730062008,,,,,-3.65,-4.12,6.88,101.049274206
0.0109041631222,-0.0374673530459,-1.29655480385,103.732433081,,,,,-0.42,-4.01,7.06,101.049636126
0.00576128438115,-0.0480499342084,-1.29698824883,103.734878063,,,,,-2.38,-5.95,6.52,101.05053401
7.90451886132e-05,-0.0435781851411,-1.27876198292,103.737251043,,,,,-13.93,-5.12,5.04,101.050923109
0.00169448752422,-0.0432894676924,-1.27062702179,103.776698112,,,,,-14.96,-3.62,5.0,101.051284075
0.00766699388623,-0.0521461963654,-1.26847302914,103.779069185,,,,,-13.81,-2.42,5.19,101.051645041
-0.000213410588913,-0.0471680685878,-1.26685369015,103.781459093,,,,,-9.39,-2.34,5.92,101.052006006
0.00284506008029,-0.0502562522888,-1.27828264236,103.783878088,,,,,-8.41,-3.22,6.08,101.052963018
0.018641281873,-0.0389997512102,-1.28400409222,103.786252022,,,,,-13.8,-3.92,5.58,101.053357124
0.0207364410162,-0.0233590211719,-1.28766679764,103.826327085,,,,,-16.62,-3.17,5.43,101.053750992
0.00629563163966,-0.0325065627694,-1.27752304077,103.828699112,,,,,-19.36,-1.94,5.57,101.054112196
0.00102411222178,-0.0413278266788,-1.26856577396,103.831102133,,,,,-18.65,-1.87,5.69,101.054474115
0.00934559106827,-0.0235899668187,-1.25119864941,103.833508015,,,,,-13.52,-2.2,5.53,101.055376053
0.0134093221277,-0.00580113101751,-1.24662792683,103.869285107,,,,,-8.86,-1.86,5.27,101.055793047
0.000373106566258,-0.0238074865192,-1.25007855892,103.871697187,,,,,-10.13,-1.26,5.17,101.056155205
0.00288976356387,-0.0498946234584,-1.25800931454,103.874108076,,,,,-13.15,-1.15,4.93,101.056517124
0.0205909647048,-0.0479533523321,-1.25519025326,103.876483202,,,,,-18.29,-0.76,3.47,101.05687809
0.0182616449893,-0.0406372845173,-1.24468076229,103.878890991,,,,,-18.08,-0.21,2.58,101.05777812
0.00994197465479,-0.0500096827745,-1.23602390289,103.917180061,,,,,-8.16,1.46,2.14,101.058168173
0.00430604070425,-0.0502033904195,-1.23473882675,103.919586182,,,,,-6.61,1.27,2.65,101.058529139
0.0205032397062,-0.0279874894768,-1.25161743164,103.921959162,,,,,-12.4,-0.18,2.97,101.058889151
0.0278054513037,-0.0294311325997,-1.25596237183,103.924378157,,,,,-17.98,-0.7,2.58,101.059250116
0.0127873048186,-0.0312090646476,-1.23935508728,103.926786184,,,,,-24.19,-0.34,1.95,101.0601511
0.00136505824048,-0.0281023513526,-1.23701179028,103.967184067,,,,,-18.03,0.4,3.57,101.060538054
0.0107472855598,-0.0465387031436,-1.22630357742,103.969559193,,,,,-9.4,-0.78,5.98,101.060900211
0.0183024387807,-0.0325706452131,-1.21412456036,103.971932173,,,,,-9.25,-1.83,6.52,101.061261177
0.00443105399609,-0.0218830462545,-1.20895719528,103.974376202,,,,,-17.35,-2.97,5.87,101.061650991
-0.0047411378473,-0.0320008695126,-1.22281968594,103.976750135,,,,,-21.41,-2.63,5.21,101.062547207
0.00229475460947,-0.0346196442842,-1.23170685768,104.014795065,,,,,-22.7,-1.86,4.91,101.063012123
0.00439367815852,-0.0214104112238,-1.23117792606,104.017165184,,,,,-15.08,-0.48,5.46,101.063380003
0.00120870035607,-0.0105724278837,-1.23293972015,104.01953721,,,,,-9.27,-0.31,5.87,101.063742161
0.00853092782199,-0.0119333546609,-1.22763192654,104.021945,,,,,-5.19,-0.65,5.95,101.06410408
0.0104869492352,-0.0217635463923,-1.20284175873,104.058016062,,,,,-8.39,-0.85,5.51,101.064464092
0.00188891973812,-0.0234869923443,-1.18181741238,104.060387135,,,,,-18.31,-0.96,4.53,101.065365076
0.00562315434217,-0.0467453151941,-1.19720709324,104.06282115,,,,,-20.08,-0.82,4.39,101.065755129
0.0145057290792,-0.0403845310211,-1.21191036701,104.065199137,,,,,-13.31,-0.16,4.91,101.066115141
0.0160588659346,-0.0273429360241,-1.20801949501,104.067574024,,,,,-10.62,0.23,5.15,101.06647706
0.010757131502,-0.0195252131671,-1.19911038876,104.107890129,,,,,-11.64,0.09,5.21,101.066837072
-0.00477119535208,-0.034198127687,-1.19895219803,104.110296011,,,,,-14.58,-0.65,4.98,101.067762136
-0.00366081111133,-0.0556604638696,-1.19037187099,104.112679005,,,,,-19.55,-2.36,3.71,101.06816411
0.00459607318044,-0.0537800565362,-1.17364013195,104.115091085,,,,,-18.43,-1.56,3.46,101.068529129
0.00523234903812,-0.0402812883258,-1.15540361404,104.11748004,,,,,-14.15,1.05,3.23,101.068891048
0.00118995655794,-0.0223996918648,-1.1526209116,104.156589031,,,,,-12.11,1.58,3.09,101.069253206
0.00813998747617,-0.0261100884527,-1.1574947834,104.158995152,,,,,-10.13,-0.31,2.15,101.070188999
0.0145695246756,-0.0293475743383,-1.14466404915,104.161383152,,,,,-12.58,-2.51,0.82,101.070579052
0.013275610283,-0.00209228694439,-1.11047828197,104.164173126,,,,,-15.95,-0.92,0.26,101.070939064
0.0139799099416,-0.00518597476184,-1.0997313261,104.16695118,,,,,-15.73,0.59,0.37,101.071302176
0.00751169491559,-0.0230685379356,-1.09852099419,104.205152035,,,,,-13.13,1.45,0.55,101.071662188
0.00944078434259,-0.0241150390357,-1.07698523998,104.207581043,,,,,-3.03,-0.42,0.5,101.072561979
0.0122519778088,-0.0413791760802,-1.03409302235,104.209957123,,,,,-0.38,-3.83,0.0,101.07298708
0.0110281733796,-0.0478017255664,-0.964061915874,104.212334156,,,,,-5.18,-2.86,0.16,101.073350191
0.0030592828989,-0.0526465252042,-0.942040264606,104.248008013,,,,,-10.23,-1.35,0.49,101.073712111
0.0096730440855,-0.0382532477379,-0.948513388634,104.250384092,,,,,-11.86,-0.2,0.97,101.07407403
0.0125117823482,-0.0234635975212,-0.949699401855,104.252756119,,,,,-7.2,-1.13,1.03,101.074976206
0.00398794561625,-0.0352412983775,-0.953176558018,104.255209208,,,,,4.2,-3.36,1.5,101.075365067
0.00273862108588,-0.0364705696702,-0.945621311665,104.257575035,,,,,-6.92,-0.92,2.61,101.075729132
0.00831724889576,-0.0244944337755,-0.932461023331,104.297124147,,,,,-14.31,0.0,2.97,101.076089144
0.0022895783186,-0.00745306350291,-0.906391382217,104.299497128,,,,,-18.85,0.02,3.05,101.076450109
0.0069742500782,-0.0149920564145,-0.881749927998,104.301906109,,,,,-14.24,-1.89,2.8,101.07735014
0.0155270453542,-0.026407437399,-0.886283099651,104.304320097,,,,,-1.42,-1.5,4.09,101.077769995
0.00876251794398,-0.00836552120745,-0.901037096977,104.30669117,,,,,-4.31,-0.38,4.75,101.078132153
0.0101995635778,0.00497161783278,-0.892950415611,104.346817017,,,,,-10.33,0.06,5.07,101.078493118
0.0144836390391,-0.0108767747879,-0.891500294209,104.349189997,,,,,-21.79,-1.97,4.36,101.078854084
0.0114257503301,-0.0156606771052,-0.888677835464,104.351592064,,,,,6.18,8.45,-4.78,101.079758167
0.00305384397507,0.00267918594182,-0.879198133945,104.354008198,,,,,3.96,9.42,-0.04,101.080147982
0.0100516919047,0.00488427467644,-0.875489652157,104.356381178,,,,,-9.94,8.34,4.74,101.080507994
0.0193072203547,-0.0123092513531,-0.873192846775,104.393171072,,,,,-15.05,6.57,5.89,101.080870152
0.009565689601,-0.0208504088223,-0.864000499249,104.395547152,,,,,-15.23,3.9,6.19,101.081231117
0.00883087143302,-0.0120240338147,-0.860605895519,104.397956133,,,,,-12.41,4.33,6.36,101.082130194
0.0157119445503,-0.0099786221981,-0.86022233963,104.400327206,,,,,-12.35,9.36,8.61,101.0825212
0.0103618241847,-0.016005044803,-0.865948498249,104.437954187,,,,,-16.11,9.16,8.66,101.082911015
0.00383431836963,-0.0168709922582,-0.868035197258,104.440323114,,,,,-22.06,5.51,5.81,101.08328414
-3.14506469294e-05,-0.0100818444043,-0.867116630077,104.442694187,,,,,-22.28,4.23,3.73,101.083645105
-0.00260643661022,-0.00694647245109,-0.870751917362,104.445147038,,,,,-18.04,6.21,1.29,101.084547997
-0.00236423127353,-0.0162642169744,-0.877095043659,104.447556019,,,,,-13.44,10.59,1.87,101.084937096
0.00216831825674,-0.0116832796484,-0.875568687916,104.487560034,,,,,-11.77,9.23,1.79,101.085298061
0.00910838134587,-0.000239627435803,-0.863132596016,104.489933014,,,,,-11.96,6.51,0.91,101.085693121
0.00879766047001,-0.00306617747992,-0.855418503284,104.492304087,,,,,-12.43,3.9,-0.02,101.086055994
0.000969106447883,-0.0128444973379,-0.854107618332,104.494748116,,,,,-13.64,2.85,-0.05,101.086976051
-0.00468491390347,-0.0132378563285,-0.846354544163,104.497119188,,,,,-12.24,6.95,3.33,101.087366104
-0.000255444901995,-0.00689550302923,-0.841450512409,104.536230087,,,,,-10.06,6.44,3.37,101.08772707
0.00454667396843,-0.00949200987816,-0.836053967476,104.53860116,,,,,-7.84,4.85,2.6,101.088087082
0.00375589728355,-0.00690700672567,-0.841937601566,104.540973186,,,,,-6.41,2.15,0.3,101.088450193
0.00436424277723,0.00911511294544,-0.836725115776,104.543462992,,,,,-10.76,3.56,-0.29,101.089349985
0.00738855265081,0.0125681143254,-0.83702737093,104.581044197,,,,,-14.7,5.69,0.2,101.089739084
0.00924859941006,0.00411561690271,-0.841991007328,104.58349514,,,,,-11.72,4.36,-0.48,101.090102196
0.00675223581493,-0.00231056381017,-0.84692043066,104.585864067,,,,,-8.7,3.17,-1.17,101.090491056
0.0130159361288,0.00745582580566,-0.839190900326,104.588234186,,,,,-6.49,2.52,-1.63,101.090855122
0.0168267898262,0.00282807461917,-0.845222651958,104.590640068,,,,,-8.24,3.2,-1.07,101.091756105
0.00920953415334,-0.00947324372828,-0.84354943037,104.627878189,,,,,-18.94,2.24,0.75,101.092145205
0.00655016489327,-0.00472798198462,-0.836670160294,104.630284071,,,,,-19.55,0.61,0.79,101.092539072
0.00893791206181,-0.00477190967649,-0.825126707554,104.632657051,,,,,-17.82,-0.82,0.7,101.092938185
-0.000631660106592,-0.0185953322798,-0.822341501713,104.635104179,,,,,-11.53,-1.27,1.03,101.093304157
-0.00570423156023,-0.0146074984223,-0.825900197029,104.63749218,,,,,-9.55,-0.61,1.6,101.094236135
0.00406349822879,-0.00392766296864,-0.833833098412,104.676878214,,,,,-15.76,-1.96,2.67,101.094630003
0.00879816804081,-0.012134661898,-0.843270421028,104.679282188,,,,,-18.91,-3.73,2.2,101.094974995
-7.98216788098e-05,-0.0137934666127,-0.842206835747,104.68167901,,,,,-19.54,-5.82,0.86,101.095347166
-0.00129362556618,-0.0084114652127,-0.838876068592,104.684104204,,,,,-16.46,-5.46,0.43,101.095714092
0.00609969813377,-0.00857981853187,-0.836510002613,104.686518192,,,,,-8.13,-3.97,0.48,101.096619129
0.00441975332797,-0.00431550201029,-0.84017431736,104.726529121,,,,,-9.01,-6.84,-0.16,101.097009182
0.00432693958282,0.00392146222293,-0.838589072227,104.728901148,,,,,-12.2,-8.39,-0.93,101.097370148
752.334838867,8.26165078e+14,5.97925519943,104.731271029,,,,,-14.63,-9.26,-1.66,101.097732067
0.010543204844,0.00803411751986,-0.830475687981,104.734018087,,,,,-12.97,-8.64,-2.33,101.098093033
0.0121527174488,0.0110906343907,-0.83072334528,104.770789146,,,,,-9.52,-8.01,-2.17,101.098995209
0.0119993221015,0.00862011499703,-0.827081561089,104.773198128,,,,,-2.74,-9.8,-2.3,101.099385977
0.00705436244607,-0.000122612342238,-0.828809380531,104.77560401,,,,,-4.01,-11.23,-2.83,101.099747181
0.00501214154065,0.000981407240033,-0.822333931923,104.777974129,,,,,-8.22,-12.69,-3.68,101.1001091
0.00224221870303,0.00457431934774,-0.823476850986,104.780345201,,,,,-9.22,-12.46,-3.63,101.100470066
-0.00409047491848,0.000667739659548,-0.827477216721,104.816977978,,,,,-7.47,-11.61,-2.52,101.101368189
-0.00123674410861,-0.00601161736995,-0.832844078541,104.81935215,,,,,-2.9,-12.72,-1.62,101.101816177
0.00300221517682,-0.00864049233496,-0.836020588875,104.821753025,,,,,-1.25,-15.11,-1.71,101.102180004
0.00759938545525,-0.00740209035575,-0.836901724339,104.824165106,,,,,-2.35,-15.94,-1.94,101.102542162
0.0080781634897,-0.00216524675488,-0.835606336594,104.826538086,,,,,-7.39,-16.05,-2.05,101.102931976
0.00502577424049,0.00760300271213,-0.840788006783,104.867067099,,,,,-9.59,-15.64,-1.98,101.103837013
-0.00207734853029,0.0167887825519,-0.846620798111,104.869464159,,,,,-6.49,-15.99,-2.45,101.104226112
-0.00617983192205,0.0147615056485,-0.844928622246,104.871855021,,,,,-3.11,-16.7,-2.72,101.104588032
-0.003897016868,0.0102294869721,-0.847143471241,104.874263048,,,,,-0.17,-18.02,-2.69,101.104948997
0.00216227956116,0.0142235402018,-0.843001663685,104.876634121,,,,,-1.93,-18.28,-2.36,101.105311155
0.0138697363436,0.0168938916177,-0.832341969013,104.916056156,,,,,-8.14,-18.45,-1.82,101.106213093
0.0172877982259,0.00499097816646,-0.818986952305,104.918464184,,,,,-8.28,-19.31,-1.94,101.106603146
0.0122320912778,-0.00315545964986,-0.826576352119,104.92083621,,,,,-0.53,-20.7,-1.35,101.106962204
0.0132211791351,-0.00499550439417,-0.831946015358,104.923240185,,,,,2.33,-21.31,-0.34,101.10732317
0.0100664393976,-0.013018257916,-0.842434942722,104.959486008,,,,,-0.39,-22.29,2.22,101.107684135
0.0040964409709,-0.00178935937583,-0.846185982227,104.961861134,,,,,-5.13,-22.9,2.97,101.108584166
0.00141902465839,0.00993557088077,-0.850512564182,104.964266062,,,,,-13.61,-25.47,1.76,101.10897398
0.00157584634144,-0.00959741510451,-0.854260861874,104.966674089,,,,,-11.84,-25.64,1.32,101.109333038
-8.98259459063e-05,-0.021633759141,-0.85884064436,104.969048023,,,,,-6.59,-24.54,2.14,101.109727144
-3.17132798955e-05,-0.0062014600262,-0.858659148216,105.007629156,,,,,-5.82,-24.02,3.08,101.110089064
0.00055024784524,-0.0028733657673,-0.859096109867,105.01000309,,,,,-9.45,-25.01,3.77,101.110985041
-0.00636284798384,0.00189599953592,-0.858382046223,105.012375116,,,,,-14.58,-27.79,1.81,101.111375093
-0.00536054745317,0.0188042763621,-0.861138820648,105.014818192,,,,,-14.9,-27.18,-0.16,101.111736059
0.00701257772744,0.0227474290878,-0.854027688503,105.017188072,,,,,-13.08,-25.39,-0.33,101.112097025
0.0107227573171,0.014076763764,-0.855515241623,105.056586027,,,,,-10.62,-23.57,-0.02,101.112456083
0.00299653410912,0.0166993904859,-0.846587121487,105.058960199,,,,,-6.5,-23.08,0.33,101.113409042
0.00135921512265,0.0182377677411,-0.842562675476,105.061333179,,,,,-9.57,-28.17,-2.3,101.113799095
0.00464786402881,0.0195892658085,-0.841109454632,105.063776016,,,,,-12.51,-27.84,-3.12,101.114161015
0.00271168164909,0.022759443149,-0.858191311359,105.066147089,,,,,-15.56,-23.43,-3.38,101.114523172
-0.00261370837688,0.0248642954975,-0.862173199654,105.106274128,,,,,-13.98,-21.31,-3.14,101.114883184
-0.00190729636233,0.0286538917571,-0.861604988575,105.108649015,,,,,-10.24,-20.56,-3.14,101.115782976
0.00440359860659,0.021731691435,-0.866986691952,105.111055136,,,,,-1.51,-24.81,-4.93,101.116173983
0.00888233818114,0.00145216472447,-0.871660470963,105.113471031,,,,,-7.41,-24.35,-5.19,101.116535187
0.00894034840167,0.0106553751975,-0.86145401001,105.149267197,,,,,-11.53,-22.29,-4.62,101.116895199
0.00806760508567,0.0215882901102,-0.857467532158,105.151656151,,,,,-13.7,-19.98,-3.94,101.117258072
0.00638607703149,0.00680629909039,-0.865812063217,105.154062033,,,,,-8.37,-17.73,-3.76,101.118188143
0.00679589435458,0.00505806133151,-0.859519779682,105.156435013,,,,,2.23,-19.56,-5.51,101.11857605
0.00469948537648,0.0160733256489,-0.858571946621,105.158840179,,,,,0.08,-19.42,-5.49,101.118936062
0.00366805121303,0.00721675716341,-0.868943274021,105.19709301,,,,,-4.45,-18.58,-5.08,101.119296074
0.00638853479177,0.0096056945622,-0.881205260754,105.199495077,,,,,-11.63,-16.02,-4.46,101.119659185
0.00597848370671,0.0110377594829,-0.891053974628,105.202181101,,,,,-11.03,-15.01,-4.82,101.120558977
0.00425252690911,-0.00292683020234,-0.90436822176,105.204588175,,,,,0.51,-13.83,-6.4,101.120947123
0.00240406952798,-0.0171194057912,-0.912825942039,105.206992149,,,,,1.72,-13.71,-5.91,101.121309042
0.00215910933912,-0.00287981517613,-0.904370546341,105.247320175,,,,,-3.42,-14.1,-3.66,101.121670008
-0.00197525322437,0.0107856951654,-0.895869851112,105.249693155,,,,,-7.52,-14.58,-2.69,101.122032166
-0.00882666558027,0.0114720985293,-0.897180318832,105.252065182,,,,,-12.45,-15.38,-2.16,101.122964144
-0.00328568555415,0.000236719846725,-0.902646481991,105.254556179,,,,,-8.56,-14.64,-0.89,101.12335515
0.000428771716543,0.00226879678667,-0.901628136635,105.256928205,,,,,-6.78,-14.27,0.31,101.12371707
-0.00144516665023,0.0158418435603,-0.891245961189,105.294809103,,,,,-5.75,-14.41,1.49,101.124078035
0.00741074979305,0.0252659227699,-0.879691243172,105.297226191,,,,,-7.39,-15.99,2.49,101.124438047
0.00836848188192,0.0200432445854,-0.889257669449,105.299602032,,,,,-9.45,-16.92,2.07,101.125361204
-0.0025110244751,0.0166344363242,-0.89496666193,105.302009106,,,,,-11.91,-16.42,0.74,101.125783205
0.00243700668216,0.0169234182686,-0.890578091145,105.339271069,,,,,-9.76,-15.04,0.9,101.126157045
0.0053399335593,0.0126985386014,-0.905273199081,105.341700077,,,,,-3.11,-12.87,1.29,101.126521111
0.000595359248109,0.0245508719236,-0.908706605434,105.344122171,,,,,-0.91,-12.58,1.02,101.12688303
0.000378547352739,0.0200758073479,-0.901370942593,105.346492052,,,,,-1.93,-13.3,-0.68,101.12778306
-0.0013121048687,0.0133638624102,-0.897586226463,105.348862171,,,,,-7.03,-13.41,-2.29,101.128173113
-0.000663058715872,0.0149950105697,-0.903100609779,105.387336016,,,,,-7.93,-11.01,-2.93,101.128533125
-0.00238153897226,0.0165060590953,-0.902450919151,105.389738083,,,,,-6.2,-9.4,-3.07,101.128895044
-0.0026502404362,0.0243152622133,-0.911623001099,105.392108202,,,,,-1.26,-7.33,-3.48,101.12925601
-0.00257568433881,0.0436541065574,-0.932191550732,105.394519091,,,,,0.18,-7.47,-3.68,101.130172014
-0.0115748904645,0.0513398945332,-0.935469329357,105.396891117,,,,,-3.32,-9.83,-3.01,101.130562067
-0.0202637314796,0.0479268804193,-0.937979698181,105.436552048,,,,,-6.12,-9.45,-2.5,101.130923033
-0.018687646836,0.0467437803745,-0.947965860367,105.438961029,,,,,-10.29,-6.4,-2.0,101.131285191
-0.0148797892034,0.0384757444263,-0.970647275448,105.441336155,,,,,-10.04,-4.91,-2.09,101.131646156
-0.012102805078,0.0253749955446,-0.986361980438,105.443740129,,,,,-5.07,-4.81,-2.46,101.13254714
-0.0135381147265,0.0297940392047,-0.976660609245,105.446173191,,,,,-0.67,-7.08,-2.42,101.132969141
-0.0122199617326,0.0255230609328,-0.972567200661,105.485020161,,,,,-5.06,-5.86,-2.48,101.13333106
-0.0102346278727,0.00719376839697,-0.975670099258,105.487426043,,,,,-9.35,-3.75,-3.01,101.133723021
-0.00753758475184,0.0162265393883,-0.970994770527,105.489797115,,,,,-12.77,-0.45,-4.87,101.134085178
-0.00779604539275,0.0254815351218,-0.971358835697,105.492170095,,,,,-3.63,-2.14,-6.3,101.134982109
-0.00792527385056,0.0228811446577,-0.967639684677,105.528072119,,,,,4.97,-4.7,-5.5,101.135370016
0.00733876600862,0.00990913249552,-0.961596369743,105.530448198,,,,,3.61,-4.26,-4.42,101.166649103
0.00242969579995,-0.00264927744865,-0.964693188667,105.532847166,,,,,-9.36,-1.16,-2.22,101.167016029
0.00112348620314,0.00684350915253,-0.957582294941,105.535256147,,,,,-15.53,-0.31,-1.58,101.167378187
0.00276851095259,0.0137677397579,-0.96238297224,105.537619114,,,,,-15.31,-2.46,-1.17,101.168270111
-0.000310474890284,0.0105233229697,-0.96004152298,105.576984167,,,,,-9.97,-4.3,-0.89,101.168615103
0.0113446265459,0.00578424520791,-0.957832813263,105.579358101,,,,,-4.6,-5.23,-0.25,101.168977022
0.00527027621865,0.00500059686601,-0.94996970892,105.581773996,,,,,-3.77,-2.97,1.94,101.169337034
-0.00136622029822,0.00770687125623,-0.944317877293,105.584197998,,,,,-9.34,-1.0,2.99,101.169699192
0.00548470951617,-0.00687547586858,-0.940890431404,105.586570978,,,,,-21.06,-0.19,3.45,101.170059204
0.00570654682815,-0.0108298454434,-0.945071876049,105.626799107,,,,,-21.94,-1.65,2.86,101.170955181
0.00505550578237,0.015890808776,-0.936206936836,105.629175186,,,,,-8.41,-3.48,1.56,101.171344995
0.003478275612,0.0286570508033,-0.932483375072,105.631584167,,,,,-6.17,-1.57,2.0,101.1717062
0.00601913593709,0.0113527402282,-0.944696962833,105.633997202,,,,,-11.11,1.67,3.03,101.172067165
0.0110761942342,-0.0044662123546,-0.95740789175,105.636370182,,,,,-15.25,1.22,2.99,101.172429085
0.000278718885966,-0.00683771632612,-0.952198028564,105.674523115,,,,,-18.37,-2.63,1.77,101.173365116
-0.0093635879457,0.0056618899107,-0.943708717823,105.676895142,,,,,-14.34,-3.43,1.01,101.173788071
-0.00745752081275,0.0183551963419,-0.946232974529,105.679304123,,,,,-12.29,1.28,1.61,101.174151182
0.00226082466543,0.0284528341144,-0.95463591814,105.681676149,,,,,-12.56,3.12,1.83,101.174513102
0.000208327663131,0.0233474094421,-0.966524481773,105.717917204,,,,,-12.96,3.29,1.68,101.174875021
-0.00290147773921,0.0131831858307,-0.968747437,105.720292091,,,,,-11.91,-0.5,0.24,101.175770998
-0.00413479097188,0.0121327955276,-0.954632043839,105.722665071,,,,,-8.9,-1.07,-1.58,101.176161051
0.0119276745245,0.0106463227421,-0.952056407928,105.725080013,,,,,-9.09,1.49,-1.84,101.176521063
0.00147146743257,0.0146892946213,-0.964737951756,105.72748518,,,,,-8.92,3.75,-2.14,101.176882029
-0.0184342376888,0.0176474992186,-0.978958249092,105.767613173,,,,,-4.75,3.79,-3.07,101.177242994
-0.0275666154921,0.0227241422981,-0.982621192932,105.769984007,,,,,-0.96,1.75,-3.59,101.214841127
-0.0353536978364,0.0320452824235,-0.978795528412,105.772348166,,,,,2.79,-1.22,-3.54,101.215239048
-0.0394340828061,0.00796269066632,-0.971855521202,105.774794102,,,,,-3.63,1.99,-2.76,101.215601206
-0.040342964232,-0.0148947611451,-0.980786561966,105.777166128,,,,,-5.78,2.91,-2.5,101.215963125
-0.0414519831538,-0.0232948865741,-0.998633146286,105.816320181,,,,,-5.21,2.56,-2.27,101.216323137
-0.0516851395369,0.00486246682703,-0.997731924057,105.818693161,,,,,2.13,-0.61,-1.74,101.217220068
-0.0550047680736,0.0152219552547,-0.998344063759,105.821063042,,,,,3.15,-1.36,-0.97,101.217610121
-0.0465592890978,0.00166744552553,-0.995606064796,105.82350421,,,,,-2.04,-0.17,-0.98,101.21797204
-0.044769525528,0.0116546135396,-0.987270355225,105.860702991,,,,,-7.67,0.76,-1.13,101.218334198
-0.0474487990141,0.0287268254906,-0.966269373894,105.86315918,,,,,-11.16,0.79,-1.36,101.218696117
-0.0287359319627,0.0332658588886,-0.958915829659,105.865537167,,,,,-7.8,0.36,-1.45,101.219583988
-0.0168542675674,0.0323881804943,-0.952284872532,105.867909193,,,,,1.44,0.78,-2.01,101.21992898
-0.0203060992062,0.0196700859815,-0.957260966301,105.870311022,,,,,2.81,1.82,-2.57,101.220290184
-0.00965443253517,0.0109960269183,-0.957982242107,105.907917023,,,,,0.51,3.09,-3.14,101.22065115
0.0123871294782,0.0175896901637,-0.964455604553,105.91032505,,,,,-9.6,4.52,-3.75,101.221013069
0.0243513323367,0.0261156056076,-0.958639681339,105.912698984,,,,,-12.49,4.37,-3.54,101.221374989
0.0435171015561,0.0355953574181,-0.951109230518,105.915113211,,,,,-7.68,4.18,-2.84,101.222306013
0.0609121248126,0.0262125041336,-0.939510047436,105.917503119,,,,,2.61,5.26,-3.24,101.222695112
0.0670033544302,0.00872889719903,-0.936702728271,105.956905127,,,,,2.57,6.52,-3.7,101.223092079
0.0783249586821,0.0127834901214,-0.938819646835,105.959311008,,,,,-1.34,6.29,-3.37,101.223453999
0.0861490517855,0.008794112131,-0.950593352318,105.961730003,,,,,-7.54,4.38,-1.48,101.223816156
0.0729128345847,-0.00455757044256,-0.984233260155,105.964191198,,,,,-7.01,3.71,-0.66,101.224713087
0.0614875182509,-0.0102160405368,-0.985830187798,105.96660614,,,,,1.83,4.71,-0.92,101.225102186
0.0649454891682,0.00868291594088,-0.991357922554,106.006850004,,,,,2.02,5.35,-1.13,101.225462198
0.0642463192344,0.0166142191738,-0.996742486954,106.009549141,,,,,-2.73,4.92,-0.61,101.225824118
0.0642079785466,0.00692985579371,-1.01851868629,106.011922121,,,,,-5.35,4.02,-0.15,101.226186037
0.0621406584978,-0.000921634957194,-1.02167284489,106.014362097,,,,,-6.78,3.21,-0.52,101.264134169
0.0518190935254,-0.0118078459054,-1.03115308285,106.05085516,,,,,-5.44,4.64,-2.48,101.264523983
0.0502364337444,-0.00150536559522,-1.04219317436,106.053291082,,,,,-6.0,5.99,-3.34,101.264906168
0.0509363599122,0.00317857414484,-1.06445801258,106.055713177,,,,,-7.07,5.72,-2.97,101.265282154
0.0549897253513,-0.0072776991874,-1.07215297222,106.058087111,,,,,-8.58,3.6,-1.84,101.265645027
0.0639428123832,0.00443996675313,-1.06902337074,106.060459137,,,,,-8.94,2.81,-1.75,101.266544104
0.0593165010214,0.00517388246953,-1.062317729,106.097117186,,,,,-10.82,3.52,-2.74,101.266934156
0.0485838055611,-0.00862505659461,-1.0659276247,106.099491119,,,,,-11.23,3.99,-2.51,101.267296076
0.047678116709,0.00301656126976,-1.05499541759,106.101895094,,,,,-10.12,3.43,-0.9,101.267657042
0.0439125597477,0.0286952536553,-1.04262423515,106.104358196,,,,,-8.42,2.3,-0.04,101.268019199
0.0492899529636,0.0200015809387,-1.06565773487,106.10673213,,,,,-5.74,0.29,0.5,101.268913031
0.0582293272018,0.0148512478918,-1.07432842255,106.146772146,,,,,-6.26,-0.11,-0.3,101.26930213
0.058370642364,0.0400530397892,-1.0696618557,106.149145126,,,,,-7.81,0.79,-0.92,101.269695997
0.0453292652965,0.043304130435,-1.08440506458,106.151553154,,,,,-7.58,1.09,-0.93,101.270059109
0.0383147075772,0.0295924302191,-1.09909296036,106.153974056,,,,,-4.22,0.15,-0.55,101.270421028
0.0422467291355,0.0308692399412,-1.09291946888,106.156347036,,,,,-2.0,-0.96,-0.42,101.271318197
0.0449281185865,0.028027465567,-1.09578430653,106.196057081,,,,,-0.67,-3.44,-0.8,101.271708012
0.0435398221016,0.0376382097602,-1.10711753368,106.198464155,,,,,-2.06,-3.02,-1.05,101.272068977
0.0397361069918,0.0377455949783,-1.12421917915,106.200838089,,,,,-5.02,-1.22,-1.63,101.272431135
0.0456085577607,0.0277961138636,-1.12701702118,106.203245163,,,,,-5.26,-0.92,-1.84,101.27287817
0.0502122268081,0.033545717597,-1.11287391186,106.239506006,,,,,-2.18,-2.74,-2.02,101.273791075
0.0523130595684,0.025698306039,-1.11038374901,106.241886139,,,,,2.56,-5.15,-1.96,101.274180174
0.0616904869676,-0.00368820037693,-1.11232280731,106.24429512,,,,,2.96,-4.2,-1.92,101.274540186
0.068294391036,0.0209794212133,-1.10266947746,106.246703148,,,,,0.55,-2.82,-2.17,101.274901152
0.0683022141457,0.0544470027089,-1.08827185631,106.249075174,,,,,-2.81,-1.81,-2.56,101.275263071
0.0533625781536,0.0266820397228,-1.09146499634,106.287779093,,,,,-6.49,-2.83,-3.32,101.309920073
0.0500250011683,0.0148248057812,-1.0975612402,106.290153027,,,,,3.53,-6.67,-3.29,101.31030798
0.062322691083,0.0328750163317,-1.10710096359,106.292517185,,,,,6.36,-5.89,-3.09,101.310670137
0.0632962062955,0.0332511812449,-1.12136471272,106.294978142,,,,,6.03,-4.21,-3.1,101.311031103
0.0553110092878,0.0211645718664,-1.11358690262,106.297351122,,,,,-3.42,-1.65,-4.14,101.311392069
0.0507667437196,0.0228794682771,-1.10658740997,106.336639166,,,,,-8.3,-1.99,-4.96,101.312289
0.0560904294252,0.0207216013223,-1.10441446304,106.3390131,,,,,-2.37,-5.35,-6.42,101.312679052
0.0592649281025,0.0321159511805,-1.09663724899,106.341399193,,,,,6.84,-2.66,-5.95,101.313085079
0.0573311001062,0.0365308225155,-1.09552335739,106.343828201,,,,,6.06,-0.34,-5.83,101.313446999
0.0569691136479,0.0240312498063,-1.09645152092,106.346202135,,,,,1.45,1.19,-6.05,101.313809156
0.0709137171507,0.0225709211081,-1.09212815762,106.386011124,,,,,-8.76,0.35,-7.18,101.314706087
0.071504406631,0.0295078326017,-1.08077061176,106.388385057,,,,,0.37,-2.57,-7.02,101.31509614
0.0653657987714,0.0316135361791,-1.07310366631,106.390789986,,,,,4.99,-1.24,-5.86,101.315457106
0.0557573288679,0.0338386073709,-1.08604729176,106.393182993,,,,,6.23,0.75,-4.53,101.315819025
0.0662670880556,0.035597525537,-1.09054219723,106.429228067,,,,,-1.75,2.28,-2.64,101.316179991
0.0761338099837,0.0345605164766,-1.0919675827,106.431639194,,,,,-6.37,0.87,-2.49,101.317093134
0.0728954300284,0.0429842174053,-1.07834005356,106.434048176,,,,,-1.84,-4.27,-3.27,101.317500114
0.0794832482934,0.0318728536367,-1.0746088028,106.436421156,,,,,2.12,-3.51,-2.93,101.317878008
0.0691540837288,0.0223053004593,-1.08164525032,106.438816071,,,,,2.46,0.29,-1.31,101.31823802
0.0665939226747,0.0320467352867,-1.07501280308,106.477135181,,,,,-0.82,0.85,-0.58,101.318600178
0.0800820589066,0.0251613464206,-1.09012293816,106.479538202,,,,,-4.11,-2.78,-0.45,101.319496155
0.0783406347036,0.0309432353824,-1.10257279873,106.481908083,,,,,5.52,-6.5,-2.71,101.319886208
0.073172993958,0.047679618001,-1.09645855427,106.484374046,,,,,6.34,-4.64,-3.07,101.357364178
0.0757447555661,0.0523665398359,-1.07883679867,106.486785173,,,,,4.3,-2.22,-3.07,101.357760191
0.0858959183097,0.034728936851,-1.07783269882,106.527479172,,,,,-2.23,-0.9,-2.57,101.358123064
0.0946459025145,0.0234722513705,-1.08213376999,106.529850006,,,,,-2.62,-2.76,-2.54,101.359019995
0.0947729349136,0.0255743395537,-1.07760870457,106.532225132,,,,,5.9,-7.18,-4.39,101.359410048
0.0843959152699,0.0379773527384,-1.07261240482,106.534668207,,,,,5.64,-5.81,-4.93,101.359772205
0.070633687079,0.0455213710666,-1.06952118874,106.537041187,,,,,-2.75,-1.44,-4.59,101.360133171
0.0746448263526,0.0373746082187,-1.08088362217,106.574824095,,,,,-6.89,-0.67,-3.87,101.36049509
0.0880528315902,0.0305931661278,-1.07910811901,106.577197075,,,,,-5.84,-3.2,-2.67,101.361391068
0.0858483463526,0.0239500049502,-1.09222722054,106.579570055,,,,,2.33,-5.01,-3.2,101.36178112
0.0932233482599,0.0110446643084,-1.09080266953,106.581976175,,,,,1.9,-2.54,-4.33,101.362141132
0.0967198163271,0.0128074232489,-1.08000087738,106.619367123,,,,,-2.22,-0.77,-4.4,101.362504005
0.0892102867365,0.0114731211215,-1.08834445477,106.62177515,,,,,-8.15,-0.07,-3.63,101.362899065
0.0856690257788,0.0235074888915,-1.08718800545,106.624186039,,,,,-6.73,-1.25,-3.12,101.363802195
0.0812034606934,0.0424447059631,-1.09117150307,106.626558065,,,,,5.5,-2.45,-3.32,101.364191055
0.0820626243949,0.0422679260373,-1.07829284668,106.628931046,,,,,6.21,-1.54,-3.67,101.364553213
0.093755081296,0.0381352007389,-1.08004319668,106.667056084,,,,,1.25,0.0,-3.72,101.364914179
0.105032712221,0.034291677177,-1.08730316162,106.669447184,,,,,-1.48,-0.32,-3.41,101.365272999
0.102089621127,0.0263140518218,-1.07343578339,106.671837091,,,,,-2.07,-2.65,-2.37,101.36620307
0.091038428247,0.0231984313577,-1.0746563673,106.674252033,,,,,2.19,-3.68,-1.18,101.366590977
0.0921679884195,0.0326771661639,-1.07812571526,106.676625013,,,,,3.75,-3.26,0.2,101.366953135
0.087742343545,0.0306912381202,-1.06623017788,106.716581106,,,,,2.77,-3.14,0.82,101.3673141
0.0891802534461,0.0139875616878,-1.06520235538,106.719103098,,,,,-1.13,-3.85,1.17,101.36767602
0.100665017962,0.00753774307668,-1.06553578377,106.721481085,,,,,-4.18,-5.04,0.06,101.405100107
0.0918385088444,0.00798148661852,-1.05983352661,106.723905087,,,,,-2.54,-4.99,-1.17,101.405508995
0.0767453089356,0.0182424690574,-1.06844985485,106.726670027,,,,,0.12,-4.86,-1.39,101.405886173
0.0900113806129,0.0148628633469,-1.09933185577,106.764733076,,,,,5.56,-4.85,-0.87,101.406246185
0.0998167991638,0.0162866767496,-1.09845948219,106.767142057,,,,,6.03,-4.79,-0.6,101.406609058
0.10875672102,0.030504481867,-1.07395792007,106.769518137,,,,,1.0,-5.0,-1.19,101.407509089
0.109945863485,0.0303299929947,-1.06111598015,106.771892071,,,,,-3.6,-5.75,-2.5,101.407898188
40.3103103638,-2.2111505395e-29,7.46853743291e+37,106.808058023,,,,,1.02,-6.89,-2.74,101.408260107
0.102861300111,0.0107523221523,-1.04140710831,106.810734987,,,,,4.84,-7.18,-2.13,101.408622026
0.100097179413,-0.0052894204855,-1.05457425117,106.813143015,,,,,7.08,-6.87,-1.34,101.408982992
0.0900959447026,0.0130840968341,-1.06647920609,106.815558195,,,,,2.8,-5.86,-0.61,101.409884214
0.09437020123,0.0249442514032,-1.07171869278,106.817924976,,,,,-7.06,-8.22,-1.92,101.410274982
0.0967446193099,0.0214933287352,-1.05749738216,106.858406067,,,,,-5.1,-9.31,-2.2,101.410636187
0.0960698798299,0.0176239330322,-1.06420052052,106.860782146,,,,,2.12,-9.06,-1.6,101.411015987
0.105839304626,0.0174211915582,-1.06983828545,106.863251209,,,,,3.67,-7.67,-1.1,101.411390066
0.117227345705,0.02217428945,-1.06101751328,106.86562109,,,,,2.62,-6.44,-0.89,101.412292004
0.115353643894,0.0188930947334,-1.07362425327,106.867997169,,,,,-4.37,-8.86,-2.79,101.412682056
0.10526574403,0.0268612448126,-1.08491706848,106.906817198,,,,,-0.78,-11.43,-3.94,101.413081169
0.0945408791304,0.0350759699941,-1.08557021618,106.909193993,,,,,1.66,-11.1,-3.64,101.413463116
0.0965371951461,0.0287376027554,-1.07810711861,106.911599159,,,,,2.76,-9.73,-2.87,101.413842201
0.0985415577888,0.0251883398741,-1.08086502552,106.914322138,,,,,-0.33,-7.16,-1.7,101.414744139
0.0959659516811,0.0363165438175,-1.07716739178,106.916696072,,,,,-2.3,-10.17,-4.45,101.415134192
0.10082475096,0.0406581684947,-1.06315886974,106.954502106,,,,,-0.41,-11.08,-5.65,101.415495157
0.0997414290905,0.0349953994155,-1.07452428341,106.956873178,,,,,1.11,-11.03,-6.19,101.415857077
0.0972227677703,0.0289069171995,-1.08703434467,106.959280014,,,,,-0.64,-8.75,-4.97,101.416217089
0.101433768868,0.0170624088496,-1.07594490051,106.961658001,,,,,-3.63,-7.7,-3.96,101.452926159
0.115994587541,0.0173543002456,-1.06016921997,106.997967005,,,,,-5.87,-9.41,-4.16,101.453318119
0.157225012779,0.0188301596791,-1.03770399094,107.000341177,,,,,-3.34,-10.21,-5.06,101.453711033
0.192862421274,0.0105329025537,-1.00571930408,107.002713203,,,,,-0.66,-10.04,-5.63,101.454074144
0.210094869137,0.0152098853141,-0.964894890785,107.005122185,,,,,-2.55,-9.36,-4.85,101.454436064
0.218642383814,0.018126970157,-0.978599071503,107.007528067,,,,,-9.87,-8.22,-2.55,101.455339193
0.226451873779,0.0314879491925,-0.986212611198,107.04759407,,,,,-8.11,-8.62,-1.88,101.4557271
0.212456136942,0.0418453067541,-1.02262198925,107.049966097,,,,,-4.45,-8.17,-2.31,101.456088066
0.189232766628,0.0410517528653,-1.04583275318,107.05233717,,,,,-2.0,-7.45,-2.69,101.456448078
0.156593054533,0.0454014316201,-1.06281340122,107.054778099,,,,,-4.19,-6.02,-2.7,101.456809044
0.122493885458,0.0540693923831,-1.06271600723,107.057147026,,,,,-7.52,-5.68,-2.51,101.457710028
0.0998664945364,0.0529951900244,-1.07591187954,107.096379042,,,,,-8.53,-7.0,-2.19,101.458099127
0.0821828097105,0.0372833386064,-1.07445776463,107.098749161,,,,,-4.77,-7.22,-1.96,101.458461046
0.0730832517147,0.0329215526581,-1.07512652874,107.101119995,,,,,1.48,-6.93,-0.96,101.458822012
0.0623764023185,0.0211734864861,-1.07165753841,107.103559017,,,,,1.63,-6.98,-0.19,101.459182978
0.0473318211734,0.0192403886467,-1.06770515442,107.140981197,,,,,-2.74,-8.13,0.98,101.460085154
0.0463961213827,0.00280677713454,-1.07590222359,107.143427134,,,,,-6.24,-10.52,0.93,101.460474014
0.0388363227248,0.00527989305556,-1.08937418461,107.14579916,,,,,-4.37,-11.81,0.99,101.460836172
0.0313689149916,0.0191706847399,-1.10628521442,107.148169041,,,,,-2.46,-11.78,1.5,101.461197138
0.0266628768295,0.013024115935,-1.11365616322,107.150577068,,,,,-0.31,-12.04,3.12,101.461585999
0.0252385362983,0.0135585907847,-1.11598205566,107.187566996,,,,,-0.74,-12.42,3.52,101.462491035
0.0367041863501,0.0318718925118,-1.1148930788,107.189972162,,,,,-6.91,-14.11,0.56,101.462903023
0.0457578077912,0.049889087677,-1.1115322113,107.192348003,,,,,-8.12,-14.34,-0.9,101.463266134
0.0496692582965,0.0412904173136,-1.1009529829,107.194761038,,,,,-5.49,-14.02,-2.18,101.463628054
0.0740596950054,0.0335036963224,-1.10756790638,107.197136164,,,,,-2.2,-14.06,-1.77,101.497656107
0.0741569250822,0.0423790663481,-1.10695016384,107.236963987,,,,,3.07,-14.26,-0.49,101.498567104
0.0614228397608,0.0614982396364,-1.10626864433,107.239373207,,,,,0.65,-14.15,-0.96,101.498957157
0.0730208903551,0.0545669943094,-1.10278844833,107.241746187,,,,,-4.14,-14.11,-2.67,101.499317169
0.078164793551,0.0519391074777,-1.10932207108,107.244153023,,,,,-3.85,-14.16,-3.09,101.499679089
0.0930567085743,0.0492337793112,-1.11222708225,107.246569157,,,,,3.11,-14.97,-2.57,101.500039101
0.0991616994143,0.0321464762092,-1.11884224415,107.28648901,,,,,6.74,-15.26,-1.84,101.500938177
0.0992839559913,0.0192977618426,-1.12265062332,107.288865089,,,,,3.28,-14.84,-0.52,101.501327991
0.100372195244,0.0149131920189,-1.10750281811,107.291237116,,,,,-0.36,-15.09,-0.65,101.501721144
0.0916338711977,0.0218139085919,-1.10218501091,107.293678999,,,,,-1.68,-16.15,-1.05,101.502084017
0.0935292690992,0.020864887163,-1.09614026546,107.330794096,,,,,0.98,-16.68,-1.11,101.502444983
0.0950632169843,0.0308953542262,-1.09094202518,107.333218098,,,,,5.76,-16.66,-0.18,101.50338006
0.0841375440359,0.0396660715342,-1.09455597401,107.335628986,,,,,3.01,-15.31,1.09,101.503770113
0.0747993066907,0.0294959861785,-1.10882306099,107.338001013,,,,,-2.67,-15.41,0.72,101.504132986
0.0752813220024,0.0400681868196,-1.10094606876,107.340371132,,,,,-3.21,-15.77,-0.16,101.504492998
0.0753457695246,0.0406183823943,-1.09611690044,107.377052069,,,,,-0.09,-15.99,-1.77,101.50485611
0.0786439329386,0.044832020998,-1.08139932156,107.379426003,,,,,1.38,-15.6,-1.68,101.505757093
0.0851012319326,0.0471629202366,-1.06135642529,107.381813049,,,,,-1.77,-13.82,0.92,101.506147146
0.0826744362712,0.0482209995389,-1.0573797226,107.384268999,,,,,-3.74,-14.05,1.01,101.506509066
0.0923373699188,0.051048271358,-1.06234514713,107.386641979,,,,,-3.76,-15.24,-0.87,101.506870985
0.106728218496,0.0494447946548,-1.0727212429,107.427076101,,,,,-2.36,-15.61,-1.98,101.507232189
0.103579975665,0.0452761724591,-1.07884860039,107.429462194,,,,,-1.03,-15.64,-2.45,101.508133173
0.101287998259,0.0511681735516,-1.08150267601,107.431849003,,,,,-3.09,-13.99,0.56,101.50852108
0.0962063670158,0.0607950240374,-1.07483863831,107.434259176,,,,,-6.58,-14.06,1.81,101.545952082
0.08694909513,0.0505186095834,-1.0608946085,107.436628103,,,,,-6.52,-14.83,1.29,101.546314001
0.100172162056,0.0374877676368,-1.05526077747,107.476118088,,,,,-5.33,-15.6,0.35,101.546675205
0.0971712246537,0.0382267683744,-1.05697894096,107.478523016,,,,,-2.56,-16.05,-1.16,101.547577143
0.0872039943933,0.0434303358197,-1.04737389088,107.480895996,,,,,-6.08,-12.74,-0.36,101.547967196
0.0998516380787,0.0343042463064,-1.05461478233,107.483347178,,,,,-7.89,-12.04,-0.18,101.548328161
0.098638869822,0.0319851189852,-1.08332228661,107.52099514,,,,,-8.3,-12.24,-0.36,101.548689127
0.102179974318,0.0343427807093,-1.08845901489,107.523410082,,,,,-4.64,-13.87,-1.36,101.549050093
0.0960713848472,0.0285357329994,-1.08165180683,107.525813103,,,,,-2.28,-14.19,-1.82,101.549998999
0.0789579600096,0.026186125353,-1.07797241211,107.528187037,,,,,-2.21,-10.61,-1.64,101.550389051
0.0958205759525,0.027900936082,-1.06640005112,107.530560017,,,,,-4.32,-8.85,-1.9,101.550750017
0.106121182442,0.0258422996849,-1.05092453957,107.567584991,,,,,-3.67,-9.66,-2.36,101.551110983
0.106932595372,0.0255010034889,-1.03783738613,107.569962978,,,,,-1.78,-10.96,-2.78,101.551472187
0.105595111847,0.0396754816175,-1.0470187664,107.572337151,,,,,2.24,-12.4,-2.26,101.552374125
0.0994663536549,0.0467778593302,-1.05461120605,107.574853182,,,,,1.52,-9.67,1.46,101.552762985
0.104164347053,0.0407929867506,-1.04502463341,107.577223063,,,,,0.38,-8.94,1.82,101.553158998
0.0992406159639,0.0298147667199,-1.04955518246,107.617757082,,,,,-0.46,-9.17,1.33,101.553521156
0.0870433598757,0.0212844070047,-1.05560922623,107.620131016,,,,,-0.22,-11.08,-0.64,101.553881168
0.0959046185017,0.0210648197681,-1.05901288986,107.62253809,,,,,0.46,-11.74,-1.01,101.554782152
0.109975785017,0.0112774036825,-1.06195914745,107.624958038,,,,,1.99,-10.73,1.76,101.555173159
0.107091933489,4.40999865532e-05,-1.04945409298,107.627332211,,,,,1.44,-9.82,2.53,101.555534124
0.0925127118826,0.00977513380349,-1.04483139515,107.666346073,,,,,-1.59,-9.07,1.47,101.55589509
0.0963969901204,0.0231104809791,-1.03137099743,107.668721199,,,,,-2.76,-9.25,0.09,101.556256056
0.100677594543,0.030114563182,-1.0287476778,107.671126127,,,,,-1.88,-9.49,-1.89,101.594736099
0.0988344401121,0.0338359773159,-1.01887047291,107.673532009,,,,,2.36,-9.39,-1.7,101.595128059
0.0982950255275,0.0339136198163,-1.02239751816,107.709353209,,,,,3.46,-8.4,-0.76,101.595489025
0.0883235782385,0.0312242228538,-1.02225100994,107.711755037,,,,,2.0,-7.83,-0.72,101.595849037
0.0857923254371,0.026032762602,-1.02930879593,107.714166164,,,,,-0.63,-7.32,-1.29,101.596210003
0.097234621644,0.0232541803271,-1.0318928957,107.716540098,,,,,0.1,-7.14,-1.6,101.597110987
0.0928232073784,0.0327710732818,-1.00266516209,107.718947172,,,,,7.44,-7.47,-1.58,101.597527981
0.084321051836,0.0430866703391,-0.994247674942,107.756978989,,,,,7.73,-7.47,-0.85,101.597891092
0.0826845690608,0.0377360135317,-0.994507551193,107.759386063,,,,,3.21,-7.25,1.1,101.598252058
0.0836193263531,0.0342728197575,-0.995361566544,107.761757135,,,,,0.59,-7.29,1.86,101.598613977
0.0864754021168,0.0266566891223,-0.996480345726,107.764193058,,,,,0.82,-7.17,1.88,101.599533081
0.0881204605103,0.0298894103616,-1.00353062153,107.766614199,,,,,5.64,-7.68,1.09,101.599935055
0.103480130434,0.0427246838808,-0.988538503647,107.807136059,,,,,6.21,-8.43,2.22,101.600298166
0.0892052352428,0.0383208096027,-0.978501915932,107.809509039,,,,,3.72,-8.62,3.48,101.600658178
0.0720564350486,0.0477823242545,-0.980763316154,107.811883211,,,,,-1.85,-8.85,4.87,101.601020098
0.0795834735036,0.0622488334775,-0.962823927402,107.814323187,,,,,-2.21,-8.81,4.23,101.601921082
0.0865521654487,0.0440244153142,-0.9568541646,107.816696167,,,,,4.59,-9.03,0.18,101.602310181
0.0737870782614,0.010161774233,-0.958329737186,107.857140064,,,,,5.44,-9.14,0.12,101.602673054
0.072451248765,0.0207703728229,-0.956307828426,107.859512091,,,,,0.56,-8.58,2.56,101.603069067
0.0832283571362,0.0474351644516,-0.956299185753,107.861915112,,,,,-3.43,-8.09,3.74,101.603432178
0.0994640961289,0.0463115125895,-0.946185410023,107.864320993,,,,,-6.58,-7.51,3.36,101.60433507
0.107254803181,0.0238871891052,-0.956751406193,107.89921999,,,,,-1.88,-7.48,0.35,101.604758024
0.0877508074045,0.028220621869,-0.978156924248,107.901625156,,,,,1.12,-6.86,-1.14,101.605120182
0.0754453837872,0.0462489575148,-0.97626054287,107.904035091,,,,,-0.42,-5.74,-0.77,101.605496168
0.0741251930594,0.0442748963833,-0.972566187382,107.906403065,,,,,-6.54,-3.45,0.13,101.605872154
0.0865108668804,0.038763910532,-0.963428139687,107.908776999,,,,,-7.7,-3.25,-0.01,101.642944098
0.0852235630155,0.0355297029018,-0.967892169952,107.947274208,,,,,-0.13,-4.55,-1.97,101.643335104
0.0803264603019,0.0353644564748,-0.985003829002,107.949675083,,,,,2.09,-4.41,-2.1,101.643697023
0.0858770310879,0.0326877385378,-0.989047527313,107.95204711,,,,,0.85,-1.85,-1.36,101.644057989
0.0805182307959,0.0236337091774,-0.989342808723,107.954455137,,,,,-1.45,-0.44,-1.22,101.644418001
0.0814031437039,0.0250726025552,-0.993320345879,107.956829071,,,,,-3.52,-0.35,-1.81,101.645318985
0.0972236096859,0.0276780370623,-0.997091293335,107.996620178,,,,,-0.24,-2.33,-1.67,101.645740986
0.0850391983986,0.017214441672,-0.988488078117,107.999025106,,,,,2.24,-2.75,0.52,101.64610219
0.0725190639496,0.0315304398537,-0.965944647789,108.00139904,,,,,2.12,-1.61,1.48,101.646464109
0.0834203958511,0.0536312907934,-0.962681949139,108.003804207,,,,,1.41,0.0,1.6,101.646824121
0.083913475275,0.0540409460664,-0.97946536541,108.00624299,,,,,0.5,0.62,-2.18,101.647726059
0.0781558454037,0.0464335978031,-0.986682295799,108.045061111,,,,,2.49,-1.63,-2.37,101.648116112
0.0814692080021,0.0346962660551,-0.9867426157,108.047470093,,,,,3.24,-2.32,-1.0,101.648476124
0.0739851817489,0.0436189994216,-0.970186889172,108.049843073,,,,,3.69,-2.31,0.65,101.64883709
0.0716246813536,0.02576562576,-0.958121776581,108.052213192,,,,,3.05,-0.72,2.3,101.649199009
0.0661188662052,0.00043391995132,-0.957951664925,108.088083029,,,,,1.79,-0.19,1.81,101.650099039
0.073962032795,0.00876034982502,-0.955435812473,108.090456009,,,,,-0.73,-1.54,-0.38,101.650488138
0.0819607898593,0.0192698519677,-0.960616469383,108.092902184,,,,,0.68,-2.48,0.57,101.650849104
0.0794838145375,0.0296433586627,-0.957333624363,108.095318079,,,,,1.84,-2.51,1.19,101.65121007
0.0891061127186,0.047198176384,-0.952995717525,108.097684145,,,,,2.38,-2.01,1.5,101.651570082
0.0884308293462,0.0418943911791,-0.972159564495,108.13700819,,,,,0.39,-0.62,0.93,101.652472019
0.0797287300229,0.0356540754437,-0.984579563141,108.13938117,,,,,-0.4,0.18,-0.5,101.652886152
0.072844311595,0.0452413484454,-0.981529831886,108.141786098,,,,,2.18,0.42,-1.04,101.653249025
0.0698451623321,0.0489515066147,-0.97515308857,108.144205093,,,,,5.34,0.44,-1.58,101.653640032
0.0756282359362,0.0443022549152,-0.97819173336,108.146579027,,,,,8.24,0.83,-2.0,101.687672138
0.075920380652,0.0282681006938,-0.979776740074,108.186870098,,,,,6.52,1.06,-1.58,101.688579082
0.0661938712001,0.0314411818981,-0.961440443993,108.189239979,,,,,-0.57,1.21,0.71,101.688969135
0.0710144117475,0.0451215058565,-0.948658585548,108.191642046,,,,,0.96,1.33,0.86,101.689331055
0.0773115381598,0.0218099933118,-0.960471510887,108.194051981,,,,,7.77,0.91,0.26,101.689691067
0.0657834857702,0.0114367473871,-0.968080401421,108.196427107,,,,,9.67,0.69,0.14,101.690052032
0.0679507553577,0.0436794310808,-0.961161315441,108.234464169,,,,,5.01,0.7,1.07,101.690952063
0.0708493441343,0.0550684034824,-0.962455093861,108.236836195,,,,,-4.03,1.65,1.17,101.691341162
0.0607345029712,0.039145372808,-0.97154301405,108.23924613,,,,,-1.23,2.1,0.08,101.691703081
0.0581706166267,0.0380357801914,-0.977044463158,108.241616011,,,,,3.5,2.55,-1.2,101.692063093
0.0721767693758,0.04199680686,-0.969609618187,108.277993202,,,,,9.72,3.56,-2.47,101.692424059
0.071092389524,0.0324452891946,-0.962919831276,108.280369997,,,,,7.88,4.34,-2.17,101.693431139
0.054975271225,0.0288360659033,-0.966725885868,108.28274107,,,,,-6.32,5.29,-1.36,101.69383812
0.0553936362267,0.0397332683206,-0.965175807476,108.285148144,,,,,-6.17,4.93,-1.77,101.694200993
0.060795456171,0.0464756265283,-0.977590441704,108.287556171,,,,,2.65,4.47,-2.72,101.69456315
0.0647930577397,0.0422511398792,-0.984574437141,108.327810049,,,,,6.8,4.74,-2.61,101.69492507
0.0602315589786,0.0328057557344,-0.987144708633,108.330185175,,,,,5.08,6.61,-1.35,101.695827007
0.0491684675217,0.030575690791,-0.9773209095,108.332557201,,,,,-5.2,6.38,-0.81,101.696210146
0.0673806071281,0.0301820207387,-0.969937503338,108.335000038,,,,,-6.43,3.31,-1.15,101.696571112
0.081425614655,0.0206561814994,-0.982807159424,108.337367058,,,,,-2.42,2.27,-1.21,101.696933031
0.0680357292295,0.012622108683,-0.977199077606,108.376290083,,,,,4.82,3.69,-0.62,101.697293043
0.0599516481161,0.0283802542835,-0.950836718082,108.378660202,,,,,4.46,5.83,-0.29,101.698194981
0.0653522610664,0.0372520759702,-0.955127120018,108.381031036,,,,,-6.05,6.9,-1.29,101.735711098
0.0677857846022,0.0448594242334,-0.967711865902,108.383478165,,,,,-6.35,4.85,-1.67,101.736075163
0.060051843524,0.047878138721,-0.981729507446,108.420940161,,,,,-0.66,2.2,-1.22,101.736438036
0.0508488379419,0.0531550198793,-0.980051279068,108.423394203,,,,,1.67,2.86,-0.54,101.736800194
0.0516840182245,0.0656615272164,-0.972206354141,108.425770998,,,,,-0.34,6.52,0.53,101.737701178
0.0537652894855,0.0527473762631,-0.977588772774,108.42814517,,,,,-5.39,6.81,-0.26,101.738092184
0.0546469911933,0.0361152663827,-0.994532346725,108.430559158,,,,,-3.52,2.9,-1.39,101.738454103
0.0537275001407,0.0341386124492,-0.989950180054,108.46795702,,,,,-0.97,1.57,-1.49,101.738814116
0.0577439591289,0.0252519343048,-0.978434562683,108.470359087,,,,,0.01,2.16,-0.76,101.739174128
0.0592863857746,0.0293056871742,-0.972498834133,108.472729206,,,,,-2.19,3.28,-0.18,101.740075111
0.0669117867947,0.0411991626024,-0.979235649109,108.475180149,,,,,-5.54,3.15,-0.01,101.740464211
0.0719789415598,0.0401061996818,-0.983310461044,108.47758317,,,,,-3.44,1.83,-0.12,101.740825176
0.0609971880913,0.025082571432,-0.987974047661,108.516957045,,,,,0.12,0.58,0.03,101.741187096
0.0570569485426,0.0117185357958,-0.992724537849,108.519369125,,,,,-0.3,0.74,0.32,101.741579056
0.0615450963378,0.0275644045323,-0.993537187576,108.52174902,,,,,-3.97,1.79,1.05,101.742480993
0.069416128099,0.036456592381,-0.986055970192,108.52417016,,,,,-4.53,2.25,1.19,101.7429111
0.0683895722032,0.0278475750238,-0.997527956963,108.526571035,,,,,-1.42,1.22,1.13,101.743276119
0.065761052072,0.0167942363769,-1.00389242172,108.566444159,,,,,-0.3,0.57,1.2,101.743637085
0.0487673096359,0.0170873943716,-1.00873959064,108.569128036,,,,,0.2,-0.2,1.32,101.743998051
0.0433343574405,0.0198225732893,-0.999857068062,108.571499109,,,,,0.56,-1.22,1.8,101.744899035
0.0520429685712,0.0144476611167,-0.996044039726,108.573944092,,,,,0.76,0.24,2.51,101.74528718
0.0577233061194,0.0252821240574,-0.989895582199,108.610743046,,,,,-0.27,0.18,2.65,101.745647192
0.0684768408537,0.0340490415692,-0.97895359993,108.613152027,,,,,-1.58,-1.96,3.06,101.746008158
0.0659671723843,0.0335646867752,-0.988959789276,108.615561008,,,,,-0.11,-3.49,3.21,101.746370077
0.0700962990522,0.0378136783838,-0.985203266144,108.617932081,,,,,2.86,-4.56,3.43,101.784955025
0.065590955317,0.0418969020247,-0.994191527367,108.620305061,,,,,7.42,-1.83,3.86,101.785345078
0.061781309545,0.0405352935195,-0.994198441505,108.65707016,,,,,-0.04,-0.44,3.07,101.785708189
0.0689859092236,0.0258127506822,-0.997846841812,108.659445047,,,,,-2.62,-1.15,2.39,101.786068201
0.06547614187,0.0274071935564,-1.01218354702,108.661846161,,,,,-1.84,-2.37,1.62,101.78643012
0.0631315633655,0.0420903265476,-0.994686365128,108.664252996,,,,,8.31,-3.88,0.8,101.787329197
0.0644073486328,0.0495350807905,-0.995448589325,108.666627169,,,,,12.28,0.28,0.72,101.787718058
0.0619727224112,0.0426137372851,-1.00367081165,108.707370043,,,,,6.96,0.99,0.22,101.788079023
0.0653217583895,0.044782191515,-0.998501181602,108.709777117,,,,,1.85,0.61,-0.66,101.788439035
0.0735054761171,0.0448804274201,-1.00350654125,108.712150097,,,,,1.04,-1.78,-2.63,101.788801193
0.0637056902051,0.0337561815977,-1.00403654575,108.714560032,,,,,5.53,-2.51,-3.15,101.789731979
0.0535488054156,0.0270412955433,-0.985442996025,108.716930151,,,,,13.57,0.57,-2.34,101.790121078
0.054294206202,0.0317907482386,-0.985877513885,108.756082058,,,,,10.2,1.42,-2.08,101.790482044
0.0556604042649,0.0187283288687,-0.990856647491,108.758486986,,,,,3.12,-0.16,-2.64,101.790844202
0.0642827674747,-0.000824058428407,-0.995430469513,108.760859013,,,,,3.06,-1.62,-3.1,101.791205168
0.0652171969414,0.0168701987714,-0.983496069908,108.763264179,,,,,9.51,-2.85,-3.19,101.792128086
0.0600514039397,0.0361019074917,-0.978099584579,108.800707102,,,,,12.45,-0.84,0.9,101.792519093
0.0631567165256,0.0162537973374,-0.996346592903,108.803122044,,,,,10.47,-1.15,2.16,101.792916059
0.0569749325514,0.0165132153779,-1.02110815048,108.805546045,,,,,8.91,-2.27,2.81,101.793307066
0.05543859303,0.0402080789208,-1.02977442741,108.807936192,,,,,10.01,-3.99,2.2,101.793683052
0.0566694289446,0.0428998246789,-1.02514278889,108.810309172,,,,,11.82,-3.86,1.45,101.794584036
0.0409249030054,0.0224331710488,-1.01857209206,108.847650051,,,,,12.25,-1.65,1.18,101.794974089
0.0276036839932,0.00564249046147,-1.01551795006,108.850025177,,,,,10.9,-1.38,1.34,101.795335054
0.0181183125824,0.0244856569916,-1.017821908,108.852397203,,,,,10.04,-1.96,0.42,101.795697212
0.0203653667122,0.0339691117406,-1.02024412155,108.85484004,,,,,11.37,-1.95,-0.62,101.796058178
0.022914564237,0.0279114451259,-1.00760781765,108.857211113,,,,,14.57,-1.6,-2.1,101.831313133
0.031360540539,0.0344972759485,-1.00010037422,108.8966012,,,,,14.35,-2.38,-0.86,101.83170414
0.0321958325803,0.0345016270876,-1.00409054756,108.898972034,,,,,10.88,-3.42,1.81,101.832065105
0.0329189412296,0.0293428245932,-1.00359451771,108.901339054,,,,,9.54,-3.54,2.57,101.832425117
0.0373035334051,0.0282559078187,-0.998730182648,108.903779984,,,,,10.64,-3.15,2.52,101.832816124
0.0377028509974,0.028625683859,-0.988238573074,108.906154156,,,,,12.4,-3.47,2.29,101.833721161
0.0513961240649,0.038060888648,-0.9794485569,108.945976019,,,,,13.03,-6.43,3.2,101.834109068
0.0614263936877,0.0458709150553,-0.963358461857,108.948348999,,,,,10.3,-6.03,3.59,101.834470987
0.0622264519334,0.0429271757603,-0.967715322971,108.950751066,,,,,4.57,-2.36,2.55,101.834832191
0.0642910450697,0.0368219390512,-0.966303050518,108.953155994,,,,,4.43,-0.6,1.17,101.835192204
0.08394882828,0.0249693524092,-0.953362882137,108.989260197,,,,,10.62,-0.18,-1.71,101.836103201
0.0881441533566,0.0246348809451,-0.950739562511,108.991665125,,,,,14.5,-1.32,-2.65,101.836449146
0.0845415443182,0.0327935740352,-0.95160150528,108.994074106,,,,,16.73,-2.16,-2.97,101.836810112
0.0883808284998,0.0351137593389,-0.969949185848,108.99644804,,,,,13.43,0.34,-2.25,101.837171078
0.0933538451791,0.0313486233354,-0.970457434654,108.998856068,,,,,9.59,2.93,-1.76,101.837562084
0.0887428075075,0.0297520700842,-0.959755778313,109.036953211,,,,,6.77,5.33,-1.0,101.837926149
0.0885297730565,0.0319754332304,-0.961995363235,109.039357185,,,,,9.5,4.31,-0.73,101.838827133
0.0940192937851,0.0330579131842,-0.971651434898,109.04172802,,,,,18.9,0.8,0.53,101.839214087
0.0964245423675,0.0299873296171,-0.987176895142,109.044192076,,,,,17.35,2.55,0.88,101.839575052
0.099871955812,0.0298931803554,-0.987711071968,109.046601057,,,,,8.47,7.22,0.72,101.839935064
0.0989277884364,0.0377687811852,-0.983933448792,109.08685112,,,,,4.83,7.48,0.39,101.840298176
0.093000292778,0.0515448078513,-0.981095075607,109.0892241,,,,,5.51,3.71,0.23,101.841198206
0.0873699039221,0.0459738820791,-0.99264383316,109.091595173,,,,,11.49,1.48,0.99,101.841587067
0.0818154588342,0.0339728742838,-0.996700525284,109.094041109,,,,,11.98,5.98,1.07,101.841948986
0.0845807343721,0.0260627288371,-1.00240790844,109.096415043,,,,,8.99,8.53,0.48,101.842308044
0.0770106241107,0.0311969537288,-1.00478613377,109.135784149,,,,,2.01,8.27,-1.22,101.877573013
0.0557894036174,0.0296730976552,-1.01688838005,109.13815403,,,,,0.92,6.03,-1.76,101.878476143
0.0480894967914,0.028536638245,-1.0235786438,109.140528202,,,,,7.11,4.8,-1.13,101.878865004
0.0495897233486,0.0476460009813,-1.03824317455,109.142969131,,,,,8.67,7.4,-0.7,101.879226208
0.0411861054599,0.0471892952919,-1.04178130627,109.179262161,,,,,5.88,11.73,-0.73,101.879588127
0.0250858962536,0.035301245749,-1.03975868225,109.181668997,,,,,2.48,11.48,-1.25,101.879949093
0.0272412765771,0.0367787033319,-1.04724693298,109.184081078,,,,,-1.49,8.23,-2.5,101.880848169
0.0414174236357,0.0375284850597,-1.04168820381,109.186451197,,,,,1.21,8.06,-3.08,101.881239176
0.0469864085317,0.0216388497502,-1.02619946003,109.188824177,,,,,5.1,11.53,-2.57,101.881599188
0.0483902283013,0.0201533380896,-1.01812958717,109.226999998,,,,,4.98,12.84,-2.06,101.881961107
0.0448450632393,0.029903428629,-1.00746774673,109.229372978,,,,,3.28,12.88,-1.65,101.882321119
0.0430573187768,0.0351345688105,-1.0064047575,109.231784105,,,,,-0.51,9.62,-1.64,101.883268118
0.0476056300104,0.044897839427,-0.996283769608,109.234205008,,,,,2.65,10.61,-2.34,101.883658171
0.0489127486944,0.0510384514928,-0.991833925247,109.236580133,,,,,4.54,11.62,-2.33,101.884016991
0.0433833412826,0.0438953265548,-1.00108897686,109.276624203,,,,,5.44,12.37,-2.0,101.884377003
0.0545769333839,0.0473552569747,-1.01222920418,109.279026985,,,,,3.78,11.57,-1.12,101.884738207
0.0609596669674,0.0535247921944,-1.02688741684,109.281401157,,,,,2.5,10.59,-0.97,101.885670185
0.0503401458263,0.0505285859108,-1.02120149136,109.283813,,,,,4.23,11.23,-2.01,101.886061192
0.0407999306917,0.0385659113526,-1.02153289318,109.286248207,,,,,7.28,11.65,-1.92,101.886423111
0.0517634116113,0.0340874195099,-1.03250133991,109.324759007,,,,,7.52,11.0,-1.31,101.886784077
0.0641948133707,0.0399938449264,-1.02297091484,109.327167988,,,,,6.62,9.94,-0.75,101.887145996
0.059829980135,0.0411642864347,-1.01590287685,109.329540014,,,,,3.82,8.69,-0.75,101.888049126
0.0570496842265,0.0409163683653,-1.01691222191,109.331912994,,,,,7.98,10.26,-2.25,101.925976992
0.0601971521974,0.0333623215556,-1.00971841812,109.367856026,,,,,10.61,9.94,-2.03,101.926341057
0.0444837808609,0.0245027784258,-1.00390958786,109.370231152,,,,,12.18,9.08,-1.3,101.926702023
0.0420821346343,0.0319806486368,-1.00099158287,109.372605085,,,,,9.7,7.75,-0.27,101.92706418
0.0543832331896,0.0406848862767,-0.996607542038,109.375044107,,,,,6.66,7.87,-0.68,101.927963018
0.0586775690317,0.0472157895565,-0.979215979576,109.377408028,,,,,6.73,9.15,-3.32,101.928351164
0.0456399768591,0.0266032833606,-0.984573721886,109.416931152,,,,,10.7,8.4,-3.28,101.928713083
0.0305741801858,0.0165769476444,-1.00118815899,109.419301987,,,,,15.78,6.37,-1.33,101.929074049
0.0254744235426,0.0239344555885,-1.01706004143,109.421708107,,,,,14.11,6.46,-0.59,101.929436207
0.00755091104656,0.0264930892736,-1.02359032631,109.424125195,,,,,4.85,8.12,-1.57,101.930335999
0.00096308265347,0.0402110144496,-1.0389636755,109.426499128,,,,,1.92,7.89,-4.04,101.930726051
0.0070582376793,0.0421459153295,-1.04038071632,109.46659708,,,,,10.62,4.47,-4.38,101.931087017
-0.00544022209942,0.0316088423133,-1.03583264351,109.46897316,,,,,14.25,3.41,-3.58,101.931447029
-0.00772599130869,0.0317460596561,-1.03477597237,109.471383095,,,,,10.89,5.43,-2.27,101.931809187
0.00620281137526,0.0404112413526,-1.02356779575,109.473790169,,,,,4.95,7.21,-2.47,101.932708025
0.0156873967499,0.0439783036709,-1.01111805439,109.476165056,,,,,-0.69,5.38,-4.23,101.933129072
0.0127687389031,0.0427764728665,-0.995759010315,109.514505148,,,,,4.49,3.07,-4.24,101.933524132
0.0162454750389,0.0471055880189,-0.969094574451,109.516878128,,,,,13.27,1.97,-3.37,101.933888197
0.037374727428,0.0392520949244,-0.965595781803,109.519286156,,,,,12.57,4.08,-2.86,101.934250116
0.0483716949821,0.0357277914882,-0.958088040352,109.521659136,,,,,2.93,9.01,-2.57,101.935153008
0.0636446326971,0.0488034337759,-0.949460685253,109.557918072,,,,,-1.47,8.04,-2.47,101.93554306
0.073050275445,0.044032536447,-0.953896045685,109.560293198,,,,,6.49,4.76,-2.23,101.935903072
0.0781994760036,0.0383573919535,-0.956449866295,109.562668085,,,,,10.65,4.86,-2.08,101.936264992
0.083368293941,0.0451703071594,-0.965168833733,109.565296173,,,,,10.72,9.66,-1.78,101.936626196
0.0700053200126,0.0517936125398,-0.976434230804,109.567727089,,,,,6.97,12.36,-1.73,101.974398136
0.0599713996053,0.0577490478754,-0.974228143692,109.607661009,,,,,-0.04,11.09,-1.23,101.974790096
0.0700051113963,0.0569185987115,-0.950757205486,109.610028028,,,,,1.89,9.38,-0.96,101.975150108
0.0828305929899,0.0405385941267,-0.95442533493,109.612399101,,,,,7.19,8.97,-0.3,101.975512028
0.0840515345335,0.0315571948886,-0.990911960602,109.614870071,,,,,8.31,10.65,0.02,101.975872993
0.0763304755092,0.0299379844218,-1.0073723793,109.617247105,,,,,5.74,14.03,0.34,101.976773977
0.0661000311375,0.0330154597759,-1.00712311268,109.65628314,,,,,1.46,12.51,-0.16,101.97716403
0.0684573873878,0.0497070401907,-0.994436740875,109.65865612,,,,,1.84,9.22,-0.57,101.977524042
0.0774072930217,0.0495708882809,-0.994760513306,109.661031008,,,,,3.72,8.71,-0.5,101.977885008
0.076821513474,0.0369688272476,-1.00806427002,109.66347599,,,,,7.46,10.52,0.33,101.978246212
0.0685241371393,0.0405130013824,-1.0044965744,109.700924158,,,,,7.62,12.03,0.8,101.979147196
0.0612757429481,0.0516275167465,-1.00168275833,109.703383207,,,,,1.22,11.11,0.35,101.97953701
0.0645793750882,0.0425746589899,-1.00723719597,109.705748081,,,,,0.03,9.66,0.13,101.979897022
0.0644298568368,0.045084439218,-1.007625103,109.708120108,,,,,3.01,8.6,0.45,101.98025918
0.0603048503399,0.0641511157155,-1.01901638508,109.710530043,,,,,5.87,9.23,1.25,101.980621099
0.0592777729034,0.0526588782668,-1.02811551094,109.748035192,,,,,8.23,12.06,3.05,101.98155117
0.0606576502323,0.0271439943463,-1.01770401001,109.750441074,,,,,3.16,12.29,3.1,101.981940031
0.0530776903033,0.0239537898451,-1.01241159439,109.752850056,,,,,-0.45,10.22,1.83,101.982302189
0.0450456477702,0.0308348853141,-1.03510046005,109.755228996,,,,,1.04,9.73,1.34,101.982662201
0.0475990734994,0.042168430984,-1.03828322887,109.75763011,,,,,4.16,9.84,1.28,101.983057022
0.0611644908786,0.0450202897191,-1.02153778076,109.796867132,,,,,8.98,11.98,2.19,101.983958006
0.0655846074224,0.0364137217402,-1.01858520508,109.799273014,,,,,1.25,13.42,1.76,101.984347105
0.0598626285791,0.0368901491165,-1.01541233063,109.801645041,,,,,-1.13,12.77,0.73,101.984708071
0.0599483400583,0.0416076481342,-1.01716780663,109.804050207,,,,,-0.88,12.24,-0.27,101.985068083
0.0666828528047,0.0361772254109,-1.00491845608,109.806452036,,,,,5.88,12.54,-1.49,101.985428095
0.058896407485,0.0332841575146,-0.996777057648,109.846892118,,,,,9.05,13.33,-1.53,102.021620035
0.0539968460798,0.0452180504799,-0.999969482422,109.849264145,,,,,4.55,16.11,-1.93,102.022009134
0.0667055398226,0.0546008124948,-1.00837206841,109.851637125,,,,,0.14,15.88,-4.07,102.022371054
0.0709405466914,0.0563919842243,-1.0259988308,109.8540802,,,,,1.74,15.65,-5.04,102.022731066
0.0631837770343,0.0466598495841,-1.04251885414,109.890721083,,,,,5.35,15.58,-5.66,102.023126125
0.045933008194,0.0326270014048,-1.05983054638,109.893131018,,,,,11.3,16.04,-5.05,102.024029016
0.0382212772965,0.0432002171874,-1.06726622581,109.895537138,,,,,4.25,19.32,-3.24,102.024419069
0.0426993891597,0.0490135997534,-1.05249643326,109.897911072,,,,,1.06,19.82,-3.46,102.024780989
0.0481265969574,0.0252969134599,-1.03705120087,109.900285006,,,,,-0.06,19.84,-3.85,102.025142193
0.055394127965,0.0325866118073,-1.0426428318,109.937040091,,,,,3.87,19.44,-4.04,102.025504112
0.0659394860268,0.0468100756407,-1.04425930977,109.939413071,,,,,6.25,19.57,-3.37,102.026404142
0.0679593160748,0.0439310669899,-1.0372928381,109.941820145,,,,,1.87,24.38,-0.02,102.026792049
0.0681721642613,0.0533861741424,-1.02962529659,109.944231033,,,,,-2.56,26.27,0.23,102.027153015
0.0790883526206,0.0512824580073,-1.03278756142,109.946626186,,,,,-8.87,27.43,-0.7,102.027542114
0.0866738706827,0.0361240506172,-1.02324545383,109.986823082,,,,,-9.24,27.15,-1.17,102.027913094
0.0872314795852,0.0425771325827,-1.00760185719,109.989197016,,,,,-7.82,27.57,-0.59,102.028815031
0.0961822271347,0.0463996008039,-0.995957612991,109.991600037,,,,,-15.57,34.76,2.37,102.029205084
0.090334713459,0.0234073568135,-1.00838768482,109.994011164,,,,,-21.15,37.05,2.53,102.029600143
0.0758718773723,-0.00356966815889,-1.02323317528,109.996386051,,,,,-26.39,38.08,2.22,102.029964209
0.0892955288291,0.00601972453296,-1.00692796707,110.036072016,,,,,-30.87,37.82,1.21,102.030326128
0.10082064569,0.0270122680813,-1.00671577454,110.038478136,,,,,-30.3,37.91,1.02,102.031228065
0.0840923115611,0.0190512072295,-1.00927209854,110.04085207,,,,,-32.31,44.33,1.47,102.031617165
0.0738366767764,0.0200872886926,-1.01577019691,110.043306112,,,,,-37.0,47.7,1.3,102.031977177
0.0672452524304,0.0298685263842,-1.01905822754,110.080671072,,,,,-47.82,51.28,0.06,102.067112207
0.0499910190701,0.0364052280784,-1.01899003983,110.08308816,,,,,-50.4,51.54,-0.74,102.06747508
0.0408534780145,0.039337746799,-1.02818274498,110.085484028,,,,,-48.55,52.13,-2.06,102.06837821
0.041339404881,0.0441365614533,-1.03913474083,110.087869167,,,,,-47.92,56.6,-2.48,102.068768978
0.0454225316644,0.0383600965142,-1.05957984924,110.090243101,,,,,-57.53,62.99,-2.32,102.069130182
0.0412442721426,0.0348451212049,-1.05841481686,110.127277136,,,,,-64.4,64.72,-2.23,102.069508076
0.0430661588907,0.0315242260695,-1.05280017853,110.129652977,,,,,-72.63,65.09,-2.53,102.069885015
0.0439249388874,0.025551808998,-1.05005156994,110.132026196,,,,,-73.08,65.45,-2.79,102.070788145
0.0393219925463,0.0280188117176,-1.03326117992,110.134469986,,,,,-74.76,72.38,-2.38,102.071178198
0.0428450107574,0.036194011569,-1.02460765839,110.136845112,,,,,-79.42,75.23,-1.58,102.071539164
0.0429998412728,0.0429913848639,-1.02765977383,110.176577091,,,,,-92.12,76.9,-0.03,102.071899176
0.0567768290639,0.0535108372569,-1.0296754837,110.178951025,,,,,-97.1,76.21,0.2,102.072261095
0.0663548260927,0.0600019693375,-1.01999104023,110.181325197,,,,,-101.46,76.52,-0.23,102.073203087
0.0591542497277,0.0598145201802,-1.01907241344,110.18377018,,,,,-102.84,81.23,-0.19,102.073592186
0.055447936058,0.0590563938022,-1.01702928543,110.186146021,,,,,-107.41,85.43,1.07,102.073954105
0.0465287826955,0.0645021572709,-1.01595211029,110.225923061,,,,,-111.3,85.57,1.6,102.074314117
0.0401113033295,0.0815538913012,-1.01303696632,110.228300095,,,,,-119.55,83.33,1.08,102.074675083
0.030492356047,0.090731754899,-1.00218749046,110.230708122,,,,,-123.06,82.86,0.28,102.075577021
0.0310860872269,0.0765891522169,-1.02768051624,110.233119011,,,,,-129.03,87.54,-0.84,102.075965166
0.0349855273962,0.0660035163164,-1.02824878693,110.269283056,,,,,-129.87,89.29,-0.52,102.076327085
0.0371020063758,0.0761003047228,-1.02083551884,110.271695137,,,,,-132.44,89.93,0.02,102.076687098
0.0475656799972,0.0729537010193,-1.02583527565,110.274106979,,,,,-134.43,88.81,-0.25,102.077049017
0.0471547394991,0.0722186267376,-1.02302002907,110.276481152,,,,,-143.81,87.34,-1.63,102.116442204
0.0506665408611,0.072466365993,-1.01810228825,110.278890133,,,,,-146.84,88.4,-1.65,102.116810083
0.0591789260507,0.0485600978136,-1.00056409836,110.316946983,,,,,-150.69,91.16,-0.86,102.117173195
0.048511326313,0.000707281753421,-0.997098445892,110.319355011,,,,,-151.43,91.67,-0.32,102.117565155
0.0343765132129,0.00462968833745,-1.00683414936,110.321727991,,,,,-151.68,91.04,-0.02,102.117928028
0.0472625792027,-0.00245498493314,-1.03144109249,110.324138165,,,,,-153.4,87.81,-0.34,102.118830204
0.0500257536769,-0.011987240985,-1.02733910084,110.326547146,,,,,-164.6,87.92,-0.47,102.119220018
0.0385335944593,0.000493722036481,-1.0334444046,110.367169142,,,,,-168.47,89.49,0.07,102.119580984
0.0218678768724,0.00405530072749,-1.05133271217,110.369548082,,,,,-171.56,91.06,1.78,102.119943142
0.0243593696505,0.0153900627047,-1.04653930664,110.371920109,,,,,-170.33,89.96,2.22,102.120305061
0.0386816561222,0.0196490827948,-1.04323589802,110.374363184,,,,,-167.46,86.04,1.98,102.121218204
0.045803271234,-0.0113897863775,-1.0509660244,110.376736164,,,,,-168.6,85.1,1.74,102.121565104
0.0419386662543,-0.0161550734192,-1.0514857769,110.415773153,,,,,-171.69,85.41,1.67,102.121926069
0.0474531054497,0.0120790097862,-1.03258192539,110.418143034,,,,,-180.13,88.58,2.49,102.122289181
0.0593292787671,0.0103713590652,-1.04047250748,110.420517206,,,,,-182.83,89.97,3.08,102.122649193
0.0622168108821,-0.00213429145515,-1.03768408298,110.422963142,,,,,-182.96,90.15,3.32,102.123049021
0.0555639490485,0.000664150342345,-1.04731845856,110.459208012,,,,,-177.73,86.97,2.7,102.123956203
0.0497349910438,0.00812176056206,-1.06316828728,110.461620092,,,,,-178.42,84.56,2.24,102.124346018
0.0350643135607,0.0077463760972,-1.05162918568,110.464076042,,,,,-182.6,85.82,2.47,102.124708176
0.025191096589,-0.00853297673166,-1.05459713936,110.466450214,,,,,-186.98,87.49,2.55,102.125070095
0.034632563591,0.00412335433066,-1.06982898712,110.468823195,,,,,-189.94,88.5,1.81,102.125447035
0.0408779680729,0.0196122620255,-1.07311713696,110.507672071,,,,,-187.54,87.07,1.32,102.126366138
0.0298612918705,0.0127217080444,-1.07214999199,110.510077,,,,,-181.13,81.7,2.72,102.126756191
0.0237779710442,-0.0035613225773,-1.08109903336,110.512448072,,,,,-186.37,81.8,4.18,102.127117157
0.0193062238395,-0.00655961409211,-1.08545768261,110.514905214,,,,,-189.77,82.31,4.16,102.127479076
0.018890645355,0.0314839333296,-1.07194745541,110.517279148,,,,,-191.48,82.02,3.72,102.127840042
0.0265697333962,0.0342052206397,-1.0825150013,110.55659914,,,,,-185.21,76.42,3.96,102.164700985
0.0336810573936,0.0123074539006,-1.10003423691,110.559007168,,,,,-183.69,74.13,6.25,102.165091991
0.0321082100272,0.0101839769632,-1.1078799963,110.561378002,,,,,-185.25,73.83,6.99,102.16546917
0.0255394950509,0.00692173652351,-1.09416043758,110.563789129,,,,,-187.14,73.57,7.19,102.165847063
0.0202715788037,0.000251457095146,-1.08896720409,110.566222191,,,,,-187.32,71.42,6.4,102.166208982
0.022951811552,-0.00414660945535,-1.09115946293,110.605014086,,,,,-185.12,69.66,6.11,102.167111158
0.0249274596572,-0.00261036586016,-1.09536683559,110.607420206,,,,,-180.38,68.06,6.79,102.167501211
0.0194294769317,0.00913768075407,-1.10520088673,110.609791994,,,,,-180.62,67.99,6.92,102.167860985
0.0237581655383,0.0141904894263,-1.09849357605,110.612165213,,,,,-179.44,65.76,6.76,102.168222189
0.0316043570638,0.0205996464938,-1.10573899746,110.647886038,,,,,-177.06,63.61,6.66,102.168583155
0.0239411946386,0.0214662048966,-1.11413455009,110.650238991,,,,,-171.67,60.59,6.79,102.169484138
0.0216768477112,0.0133628696203,-1.1180164814,110.652611017,,,,,-171.52,61.86,6.86,102.169874191
0.0271381605417,0.00962292589247,-1.11253154278,110.655055046,,,,,-173.14,61.66,6.24,102.170235157
0.028179788962,0.00771346129477,-1.11250627041,110.657423019,,,,,-171.66,59.57,6.05,102.170596123
0.0149122513831,-0.000567132607102,-1.11062026024,110.696803093,,,,,-164.32,54.3,6.19,102.170958042
0.0118486844003,-0.000955985859036,-1.12126743793,110.699176073,,,,,-160.98,53.16,6.4,102.171859026
0.0174631755799,0.00192739069462,-1.12305021286,110.701582193,,,,,-163.35,57.38,6.58,102.172247171
0.0110002700239,0.00929222814739,-1.11139476299,110.704005003,,,,,-165.6,58.21,6.28,102.172608137
0.0067288801074,0.0152083244175,-1.10557711124,110.706375122,,,,,-163.57,55.62,5.73,102.173007011
0.0224784817547,0.00886840187013,-1.11577439308,110.746581078,,,,,-159.02,53.39,5.73,102.173371077
0.0330188497901,0.00969611667097,-1.12412464619,110.748953104,,,,,-150.0,51.29,6.38,102.174306154
0.0318535231054,0.0154706593603,-1.10797691345,110.751361132,,,,,-149.06,53.71,7.51,102.174695015
0.0306434687227,0.00582463108003,-1.08034515381,110.753774166,,,,,-153.62,55.88,7.68,102.175057173
0.0270752552897,0.00541948340833,-1.08599936962,110.756149054,,,,,-153.75,55.25,7.23,102.175417185
0.0248166490346,0.0105554293841,-1.09301924706,110.794595003,,,,,-147.34,51.49,6.32,102.175777197
0.0230947192758,0.0262447912246,-1.09054589272,110.796971083,,,,,-142.68,49.81,6.15,102.211372137
0.0241871420294,0.0223621856421,-1.09616351128,110.799384117,,,,,-137.87,49.56,7.2,102.211763144
0.0275097619742,0.00481989793479,-1.09512579441,110.80176115,,,,,-139.57,50.57,7.28,102.212125063
0.0241153035313,-0.0061683030799,-1.09093260765,110.837896109,,,,,-139.88,50.49,6.05,102.212486029
0.0141169559211,-0.010257570073,-1.08397352695,110.840270042,,,,,-137.11,49.13,5.22,102.212880135
0.00611058715731,-0.0178655274212,-1.08349215984,110.842647076,,,,,-129.01,45.96,4.5,102.21381402
0.00870810355991,-0.0201730038971,-1.0824739933,110.845058203,,,,,-125.04,44.84,5.59,102.214205027
0.0208228845149,-0.0101378876716,-1.07897937298,110.847465038,,,,,-126.68,45.14,6.92,102.214565992
0.0272629633546,0.00713501684368,-1.07546579838,110.887732983,,,,,-127.02,44.91,6.99,102.21492815
0.0172084271908,0.0174358505756,-1.07552146912,110.890109062,,,,,-124.7,42.88,6.28,102.215288162
0.0219435654581,0.0200742837042,-1.08413469791,110.892482996,,,,,-122.74,42.18,5.89,102.216189146
0.0320836640894,0.0144904125482,-1.0806427002,110.894929171,,,,,-117.29,42.56,6.54,102.216580153
0.0302556231618,0.0120495092124,-1.0698953867,110.897301197,,,,,-115.64,42.51,7.07,102.216941118
0.0282810833305,0.0114717427641,-1.07675004005,110.936272144,,,,,-112.38,41.56,7.26,102.217302084
0.0220851749182,0.00679074786603,-1.08682191372,110.938649178,,,,,-110.97,40.98,6.67,102.217664003
0.020225610584,-0.00215104036033,-1.09771072865,110.941023111,,,,,-109.78,40.64,5.85,102.21856308
0.0173930730671,-0.0119271446019,-1.07964134216,110.943463087,,,,,-102.27,41.58,4.99,102.218953133
0.00502794981003,-0.0150023363531,-1.06963837147,110.980699062,,,,,-92.51,40.26,6.12,102.219314098
0.00134852167685,-0.0215763691813,-1.08277571201,110.983143091,,,,,-88.81,39.27,6.5,102.219675064
0.00706134084612,-0.019650394097,-1.0815769434,110.985516071,,,,,-86.9,38.4,6.39,102.22003603
0.0117137720808,-0.0153179522604,-1.07803571224,110.987884998,,,,,-88.49,37.21,4.81,102.220937014
0.00625054072589,-0.0234496537596,-1.06797683239,110.990285158,,,,,-86.09,37.69,3.3,102.221327066
0.00304726883769,-0.0374985784292,-1.0664639473,111.027839184,,,,,-81.6,37.54,3.61,102.221716166
0.00713461078703,-0.0385833829641,-1.0687122345,111.030250072,,,,,-77.16,37.06,4.05,102.256283045
0.00432607345283,-0.0427098423243,-1.05865418911,111.032625198,,,,,-74.39,35.82,4.28,102.256646156
-0.0016164946137,-0.0575489699841,-1.06131565571,111.035037994,,,,,-76.73,35.23,3.82,102.257546186
-0.00359725952148,-0.0662212967873,-1.06178379059,111.037425995,,,,,-82.04,36.4,2.0,102.257936001
0.00454556941986,-0.0720769390464,-1.05072999001,111.076789141,,,,,-72.92,38.95,2.05,102.258297205
0.0144205708057,-0.0700647383928,-1.04197204113,111.079191208,,,,,-67.06,39.37,2.07,102.258656979
0.0202037580311,-0.0598762556911,-1.02404868603,111.081566095,,,,,-62.86,38.96,1.88,102.259016991
0.0287531185895,-0.0582928061485,-1.02579808235,111.083973169,,,,,-62.17,36.99,0.7,102.259917021
0.028000915423,-0.0579732060432,-1.02578139305,111.086379051,,,,,-62.63,37.23,-1.54,102.260307074
0.0259322226048,-0.0552283599973,-1.01135623455,111.126686096,,,,,-58.35,38.15,-1.55,102.260668993
0.0263696853071,-0.053692035377,-1.01191604137,111.129058123,,,,,-52.5,38.2,-1.08,102.261031151
0.0298852324486,-0.0446792915463,-1.01330268383,111.131430149,,,,,-43.72,34.19,0.83,102.261408091
0.0355199053884,-0.0403557047248,-1.01955497265,111.133876085,,,,,-43.38,30.95,1.98,102.262325048
0.0347084254026,-0.0289592090994,-1.01546835899,111.17061305,,,,,-51.28,25.34,3.64,102.262714148
0.0292024500668,-0.0164816062897,-1.01386272907,111.173362017,,,,,-52.47,25.93,3.72,102.263110161
0.0192824248224,-0.0121542718261,-1.02233088017,111.175769091,,,,,-49.23,27.82,4.44,102.263473034
0.0192542839795,-0.00126677192748,-1.02895987034,111.178142071,,,,,-46.13,27.35,5.07,102.263832092
0.030073851347,0.00609322264791,-1.03519558907,111.180515051,,,,,-42.83,23.25,5.88,102.264731169
0.0364006981254,0.00758952088654,-1.03855550289,111.21700716,,,,,-45.79,20.36,4.13,102.265120983
0.0322960391641,0.0176486764103,-1.03257906437,111.219377041,,,,,-50.56,22.57,0.38,102.265484095
0.0222217198461,0.018295424059,-1.04201745987,111.221784115,,,,,-50.35,24.81,-0.89,102.265844107
0.023217221722,0.00591141916811,-1.0428378582,111.224197149,,,,,-41.79,26.45,-1.1,102.266206026
0.0281868577003,0.00146675668657,-1.03783929348,111.22656703,,,,,-35.62,24.85,-0.5,102.267105103
0.0302265956998,0.000424657016993,-1.02347147465,111.267030001,,,,,-29.35,18.67,-0.5,102.306107998
0.0257032942027,-0.000941598787904,-1.01918053627,111.269425154,,,,,-32.49,18.53,-1.18,102.306496143
0.0196385253221,0.00613805092871,-1.01988041401,111.271817207,,,,,-36.6,20.19,-1.57,102.306867123
0.0192528087646,-0.00356441363692,-1.02752351761,111.274226189,,,,,-33.92,20.62,-0.96,102.307229996
0.0167697612196,-0.0162929203361,-1.03243410587,111.276600122,,,,,-21.45,18.82,0.56,102.308126211
0.013037500903,0.00123314373195,-1.03466391563,111.316012144,,,,,-13.86,16.69,0.5,102.308516979
0.00988350063562,0.0195477623492,-1.03393614292,111.318417072,,,,,-20.27,17.13,-0.89,102.308879137
0.0123370243236,0.0231607425958,-1.03344225883,111.320787191,,,,,-24.97,17.55,-1.69,102.309240103
0.0179186873138,0.0169246029109,-1.04406988621,111.323429108,,,,,-27.22,18.4,-2.83,102.309638023
0.0202290713787,-0.0031468924135,-1.04547154903,111.360637188,,,,,-23.82,19.04,-3.14,102.31054306
0.0149756688625,0.00516176410019,-1.0451362133,111.36303401,,,,,-11.94,20.2,-2.79,102.310934067
0.0108813727275,0.0269026402384,-1.03883492947,111.365426064,,,,,-12.5,19.8,-2.12,102.311295033
0.0172140449286,0.00816798396409,-1.02787959576,111.367818117,,,,,-19.58,16.71,-1.32,102.311655998
0.0157144553959,-0.00252525229007,-1.01264035702,111.370191097,,,,,-22.77,15.17,-1.5,102.312017202
0.014397541061,0.000223021954298,-1.01503491402,111.407491207,,,,,-21.71,14.71,-2.4,102.312957048
0.0194801315665,0.000153126195073,-1.01478111744,111.409865141,,,,,-11.81,15.37,-2.08,102.313347101
0.0258059129119,-0.00148912332952,-1.01343333721,111.412234068,,,,,-5.49,13.04,-0.17,102.313710213
0.028996322304,-0.00802462734282,-1.00388991833,111.41467905,,,,,-6.23,10.39,0.27,102.314071178
0.0314374491572,-0.00807795859873,-1.00098359585,111.41704917,,,,,-12.05,5.67,-0.99,102.314433098
0.0346856042743,-0.0054215779528,-1.00516688824,111.456567049,,,,,-13.57,5.53,-2.3,102.315332174
0.0360202863812,0.00328428857028,-1.01831567287,111.458940983,,,,,-4.08,9.98,-3.53,102.315720081
0.029946770519,-0.00197862647474,-1.02370774746,111.461313009,,,,,0.47,10.27,-2.62,102.316082001
0.0216409284621,-0.0172561947256,-1.02439951897,111.463754177,,,,,3.08,5.88,-1.22,102.316443205
0.0134922889993,-0.0165861658752,-1.02925217152,111.466128111,,,,,0.65,2.37,-1.37,102.316805124
0.00332321040332,-0.00513423793018,-1.03009331226,111.506380081,,,,,-5.23,-1.62,-2.83,102.355625153
0.00467333942652,-5.9625133872e-05,-1.03079795837,111.508751154,,,,,-4.67,0.44,-3.19,102.356015205
0.0115960752591,-0.0111041031778,-1.03050208092,111.511156082,,,,,1.52,2.77,-1.33,102.356378078
0.0116075202823,-0.00763021036983,-1.02900421619,111.513606071,,,,,4.46,1.91,-0.58,102.356739044
0.00922045018524,0.00838213972747,-1.03137803078,111.549211979,,,,,5.61,-0.52,-0.51,102.357101202
0.025469025597,0.0135991927236,-1.02592909336,111.551619053,,,,,3.18,-6.09,-2.68,102.358031988
0.0335519090295,0.00261323712766,-1.02360224724,111.554028034,,,,,1.4,-5.09,-5.64,102.358422041
0.0269815865904,-0.000808522105217,-1.0243473053,111.556402206,,,,,2.95,-3.26,-5.28,102.358783007
0.0246169436723,-0.00362052768469,-1.02042233944,111.558809042,,,,,5.6,-1.9,-4.56,102.359145164
0.019241919741,0.00411930680275,-1.02300000191,111.596893072,,,,,10.0,-2.48,-3.87,102.35950613
0.0198991596699,0.0105326771736,-1.0284845829,111.599294186,,,,,11.09,-6.82,-4.71,102.360407114
0.0233658198267,-0.00250078551471,-1.01539182663,111.601666212,,,,,10.87,-10.3,-4.87,102.360799074
0.0152036473155,-0.000243807211518,-1.02181363106,111.604073048,,,,,9.38,-10.25,-3.77,102.361159086
0.0114737274125,0.000612473115325,-1.0203359127,111.606478214,,,,,9.04,-8.59,-3.64,102.361522198
0.0138895940036,-0.0103971865028,-1.02365589142,111.647006989,,,,,9.19,-6.53,-4.07,102.361883163
0.0170462355018,-0.00732582993805,-1.02600312233,111.649381161,,,,,11.98,-5.36,-5.78,102.362784147
0.0240602660924,-0.00280884001404,-1.00869572163,111.651757002,,,,,18.25,-13.84,-5.16,102.363209009
0.0284630209208,0.00821674056351,-0.994359493256,111.654205084,,,,,16.72,-16.18,-4.51,102.363571167
0.0271139368415,0.000674711540341,-0.985309362411,111.65657711,,,,,13.54,-16.61,-4.44,102.363933086
0.02120009996,-0.00292384531349,-0.998431682587,111.695772171,,,,,7.95,-11.6,-6.48,102.364294052
0.0189821813256,3.26093286276e-05,-1.00052678585,111.698144197,,,,,8.43,-8.63,-7.85,102.36519599
0.013496119529,0.00328356772661,-0.988953828812,111.700517178,,,,,21.23,-11.21,-7.97,102.365615129
0.0069821337238,0.00637064129114,-0.989825606346,111.702958107,,,,,21.49,-17.02,-6.35,102.365977049
0.0110469218343,0.00449068844318,-1.00350487232,111.739193201,,,,,17.49,-17.89,-6.55,102.366338015
0.00954039394855,-0.00187746435404,-1.01222276688,111.741600037,,,,,12.77,-16.77,-7.48,102.366700172
0.00490518473089,0.00217492319643,-1.00733065605,111.74401021,,,,,11.65,-10.0,-11.0,102.400038004
0.000302974251099,0.0130645316094,-1.00495994091,111.746381044,,,,,21.47,-11.9,-10.49,102.400428057
0.00593511760235,0.0141867864877,-1.01060771942,111.748753071,,,,,24.64,-14.73,-9.77,102.400789976
0.015518175438,0.0152666624635,-1.0102417469,111.786976099,,,,,25.12,-18.03,-9.06,102.401149988
0.0250886324793,0.0137790124863,-1.00027298927,111.789348125,,,,,18.86,-22.51,-7.73,102.401511192
0.0214131716639,0.0116245374084,-0.991889834404,111.791755199,,,,,14.85,-22.7,-6.98,102.402431011
0.0232375692576,0.0190306995064,-0.990984201431,111.794162035,,,,,15.32,-20.84,-3.61,102.402851105
0.0292410571128,0.0218764413148,-0.987661719322,111.796535015,,,,,19.36,-21.66,-2.14,102.403218031
0.0264721512794,0.0191494841129,-1.00120222569,111.836519003,,,,,26.07,-27.25,0.54,102.403581142
0.0226972401142,0.0145818535239,-1.00624382496,111.838926077,,,,,26.04,-30.57,1.79,102.403943062
0.0231504812837,0.0124330464751,-1.00335478783,111.841296196,,,,,18.94,-34.2,3.52,102.404843092
0.019883973524,0.00771543383598,-1.008898139,111.843701124,,,,,12.01,-32.53,3.27,102.405234098
0.0125208636746,0.000155175104737,-1.01309812069,111.846135139,,,,,14.76,-30.39,2.26,102.405625105
0.00919581670314,0.00256319530308,-1.00958764553,111.884705067,,,,,19.34,-31.13,1.84,102.405987978
0.0108721107244,0.00480620749295,-1.01260018349,111.887109041,,,,,26.02,-35.44,1.75,102.406349182
0.00940553750843,0.00883608870208,-1.01944005489,111.889481068,,,,,25.3,-37.08,1.65,102.407250166
0.0120402239263,0.0156991798431,-1.01967954636,111.89185214,,,,,13.06,-31.95,-1.77,102.407639027
0.0140634402633,0.0118547473103,-1.0207233429,111.927819014,,,,,11.88,-27.93,-3.27,102.408001184
0.0192646030337,0.0159241836518,-1.01345026493,111.930188179,,,,,19.6,-24.42,-4.86,102.408361197
0.0242874193937,0.0182427000254,-1.00735116005,111.932560205,,,,,25.32,-25.97,-4.76,102.408722162
0.0187720153481,0.0177518222481,-1.01568508148,111.934997082,,,,,29.47,-31.36,-4.21,102.409620047
0.013012948446,0.0212194193155,-1.00648438931,111.937355042,,,,,21.01,-31.36,-5.68,102.410010099
0.00417687743902,0.0161933656782,-1.01467549801,111.97675705,,,,,14.37,-25.43,-7.44,102.446359158
0.0110569112003,0.00773991644382,-1.00966536999,111.979127169,,,,,16.55,-23.69,-7.37,102.446729183
0.0178389698267,0.00382536277175,-1.01691424847,111.981522083,,,,,26.95,-27.15,-5.1,102.447092056
0.0129100102931,-0.00278833601624,-1.00397121906,111.983980179,,,,,30.65,-30.54,-3.77,102.447986126
0.00697646196932,0.0042986664921,-0.993329048157,111.986353159,,,,,21.99,-32.24,-2.71,102.448376179
0.00200447812676,0.007344417274,-0.994126319885,112.026524067,,,,,16.98,-29.71,-2.85,102.448737144
-0.000264882924967,0.0181861724705,-0.985525369644,112.029214144,,,,,15.86,-26.39,-2.03,102.44909811
0.00377662107348,0.0240950454026,-0.990906000137,112.031616211,,,,,19.53,-26.71,-1.26,102.449458122
-0.00133288826328,0.0137683469802,-0.99680685997,112.034023046,,,,,28.1,-28.32,-0.67,102.450356007
-0.00049171585124,0.0086991302669,-0.997585654259,112.036395073,,,,,27.85,-27.02,-1.52,102.450745106
0.00712492037565,-0.000493137165904,-0.998028278351,112.074516058,,,,,19.11,-24.84,-2.49,102.451106071
0.00811325293034,-0.0157348234206,-0.993180274963,112.076887131,,,,,15.84,-24.47,-2.63,102.451466084
0.00819821842015,-0.00500158034265,-0.985064506531,112.079290152,,,,,15.04,-24.47,-2.65,102.451827049
0.00789232272655,0.0196535531431,-0.978805661201,112.081665039,,,,,20.62,-24.52,-2.72,102.452721119
0.00924721732736,0.0247753690928,-0.990950226784,112.118319988,,,,,26.95,-22.97,-1.59,102.453181982
0.00692385621369,0.0134608577937,-0.9962028265,112.120691061,,,,,23.57,-22.91,-1.14,102.453576088
0.00822788570076,0.0134805943817,-0.994015932083,112.123097181,,,,,14.16,-22.93,-1.98,102.453940153
0.00815793033689,0.0206071194261,-0.98538005352,112.12549901,,,,,12.05,-22.64,-3.21,102.454301119
0.00414302386343,0.0215464625508,-0.989464759827,112.127887011,,,,,13.24,-22.24,-4.56,102.455201149
0.00440225191414,0.0229923892766,-0.997704267502,112.167381048,,,,,26.0,-22.69,-4.88,102.455592155
0.0056327059865,0.0245289150625,-0.991553783417,112.169754028,,,,,23.92,-23.46,-3.67,102.455954075
0.00779712200165,0.023111442104,-0.998038768768,112.172126055,,,,,19.34,-23.09,-4.31,102.456315994
0.0053172390908,0.0255947913975,-0.9848549366,112.17456913,,,,,15.35,-22.03,-5.78,102.456677198
0.00951830670238,0.023962141946,-0.988120794296,112.176939011,,,,,16.18,-20.11,-8.95,102.494768143
0.0171505641192,0.0202473085374,-0.997531294823,112.216210127,,,,,27.44,-22.99,-6.8,102.495164156
0.0163857992738,0.0304433535784,-0.989723086357,112.218582153,,,,,26.8,-24.14,-5.1,102.495527029
0.00563286244869,0.0415019020438,-0.985347270966,112.220957041,,,,,23.22,-24.52,-4.0,102.495890141
0.000868022558279,0.0379526168108,-0.980134010315,112.223404169,,,,,15.09,-22.26,-4.45,102.496250153
0.000354007002898,0.0328481122851,-0.993146777153,112.260953188,,,,,14.35,-20.78,-5.44,102.49715209
0.00181095127482,0.0367687121034,-0.994377374649,112.263400078,,,,,21.92,-21.15,-6.4,102.497541189
0.00888464972377,0.0278026405722,-0.987541794777,112.265775204,,,,,22.9,-22.7,-5.5,102.497902155
0.0146797336638,0.0127790030092,-0.989974617958,112.268146038,,,,,18.82,-24.76,-3.12,102.498263121
0.0142240962014,0.0152714084834,-0.984620809555,112.270549059,,,,,16.14,-24.28,-2.34,102.49862504
0.0151120349765,0.022985810414,-1.00149559975,112.308044195,,,,,15.9,-20.88,-2.58,102.499520063
0.0201402064413,0.0275753159076,-1.00338017941,112.310446978,,,,,21.25,-17.51,-5.12,102.499909163
0.0213062781841,0.0297462064773,-0.989764094353,112.312848091,,,,,21.27,-18.25,-5.3,102.500271082
0.0173229221255,0.0302820745856,-0.982081770897,112.315227032,,,,,20.17,-19.24,-4.85,102.500633001
0.0155691523105,0.038586422801,-1.00143885612,112.317625999,,,,,18.32,-18.84,-3.65,102.500995159
0.0199050419033,0.0307283941656,-1.00687885284,112.35819912,,,,,18.93,-16.74,-3.81,102.501929045
0.00961703807116,0.0120459068567,-0.991873860359,112.360573053,,,,,22.93,-8.77,-7.27,102.502318144
0.00022098433692,0.0127688404173,-0.992292523384,112.362982035,,,,,23.52,-8.48,-8.08,102.502680063
0.00807357113808,0.0277549307793,-1.00285947323,112.365356207,,,,,22.76,-10.81,-7.24,102.503082037
